TrialNum	Block	Odd: Visual	Odd: Audio	Odd: Haptic	CueDirection	RT	RespDirection	Acc	TrialTime	ITI
1	1	0	0	0	1	0.452255010604858	1	1	2.40802764892578e-05	100
2	1	0	0	0	1	0.384576082229614	1	1	2.61607718467712	500
3	1	0	0	0	2	0.376118898391724	2	1	5.63186001777649	300
4	1	0	0	0	1	0.33601188659668	1	1	8.44753909111023	200
5	1	0	1	0	1	0.594285011291504	1	1	11.1633040904999	500
6	1	0	0	0	2	0.406741857528687	2	1	14.1790912151337	400
7	1	0	1	0	1	0.385550022125244	1	1	17.0947821140289	200
8	1	0	0	0	2	0.406053066253662	2	1	19.8103950023651	500
9	1	0	0	0	1	0.334051847457886	1	1	22.8262021541595	200
10	1	0	0	0	1	0.539447069168091	1	1	25.541873216629	200
11	1	0	0	0	2	0.456342935562134	2	1	28.2577261924744	300
12	1	0	0	0	1	0.34282112121582	1	1	31.0735080242157	400
13	1	0	0	0	1	0.347032785415649	1	1	33.9892830848694	200
14	1	0	0	0	1	0.4825119972229	1	1	36.7050321102142	500
15	1	0	0	0	2	0.448088884353638	2	1	39.7208631038666	100
16	1	0	0	0	1	0.376557111740112	1	1	42.3364741802216	300
17	1	1	0	0	1	0.55638313293457	1	1	45.1523082256317	200
18	1	0	0	0	2	0.428375959396362	2	1	47.8680560588837	100
19	1	0	0	0	2	0.509991884231567	2	1	50.4838581085205	400
20	1	0	0	0	1	0.39886999130249	1	1	53.3996670246124	400
21	1	0	0	0	2	0.350389003753662	2	1	56.3153700828552	400
22	1	1	0	0	2	0.858837127685547	2	1	59.2311260700226	400
23	1	0	0	0	2	0.470996141433716	2	1	62.1467950344086	200
24	1	1	0	0	2	0.465527772903442	2	1	64.8625490665436	500
25	1	0	0	0	1	0.380244970321655	1	1	67.878350019455	500
26	1	0	1	0	2	0.41129207611084	2	1	70.8940360546112	500
27	1	0	0	0	2	0.466351985931396	2	1	73.9096660614014	100
28	1	0	0	0	1	0.379706859588623	1	1	76.5254302024841	500
29	1	0	0	0	2	0.4183509349823	2	1	79.5412390232086	200
30	1	1	0	0	1	0.458009004592896	1	1	82.2569291591644	300
31	1	0	0	0	2	0.387032985687256	2	1	85.0727171897888	300
32	1	0	1	0	2	0.432814121246338	2	1	87.888512134552	100
33	1	0	0	0	2	0.42059588432312	2	1	90.5042881965637	400
34	1	0	0	0	2	0.466336011886597	2	1	93.4200382232666	400
35	1	0	0	0	2	0.416630029678345	2	1	96.3357741832733	200
36	1	0	0	0	2	0.315791130065918	2	1	99.0515041351318	400
37	1	0	0	0	2	0.402695894241333	2	1	101.967312097549	100
38	1	0	0	0	1	0.443421125411987	1	1	104.583008050919	300
39	1	0	0	0	2	0.343618154525757	2	1	107.398776054382	300
40	1	0	1	0	2	0.419177055358887	2	1	110.214593172073	100
41	1	0	0	0	2	0.460499048233032	2	1	112.830349206924	300
42	1	0	0	0	1	0.434850931167603	1	1	115.646187067032	200
43	1	0	1	0	1	0.552680015563965	1	1	118.361931085587	400
44	1	0	0	0	1	0.560190916061401	1	1	121.277704000473	100
45	1	0	0	0	1	0.457860231399536	1	1	123.8933801651	400
46	1	1	0	0	2	0.40816593170166	2	1	126.809260129929	100
47	1	0	0	0	1	0.35367488861084	1	1	129.425038099289	100
48	1	0	0	0	1	0.425280094146729	1	1	132.040882110596	200
49	1	0	0	0	1	0.452009201049805	1	1	134.756618022919	300
50	1	0	0	0	2	0.394513845443726	2	1	137.572383165359	500
51	1	1	0	0	1	0.43010401725769	1	1	140.588170051575	200
52	1	0	0	0	1	0.410094022750854	1	1	143.303866147995	300
53	1	0	0	0	1	0.426293134689331	1	1	146.119640111923	400
54	1	0	0	0	2	0.406537055969238	2	1	149.035407066345	100
55	1	0	0	0	2	0.409814834594727	2	1	151.651118040085	500
56	1	0	0	0	1	0.366930961608887	1	1	154.666938066483	500
57	1	0	0	0	2	0.352051973342896	2	1	157.682641029358	300
58	1	0	0	0	1	0.381002187728882	1	1	160.498331069946	300
59	1	0	0	0	1	0.441802978515625	1	1	163.314069032669	100
60	1	0	0	0	2	0.406002998352051	2	1	165.929753065109	500
61	2	0	0	0	1	0.434736967086792	1	1	187.955807209015	100
62	2	0	0	0	1	0.397095918655396	2	2	190.571871995926	200
63	2	0	0	0	2	0.419903039932251	2	1	193.287732124329	100
64	2	0	0	0	1	0.370935201644897	1	1	195.90344619751	300
65	2	0	0	0	1	0.406307935714722	1	1	198.719272136688	500
66	2	0	0	0	1	0.417546987533569	1	1	201.735094070435	500
67	2	1	0	0	1	0.523886203765869	1	1	204.750777006149	400
68	2	0	0	0	1	0.440668106079102	1	1	207.666487216949	100
69	2	0	0	0	2	0.400262117385864	2	1	210.282207012177	500
70	2	0	1	0	2	0.520893096923828	2	1	213.298009157181	400
71	2	0	0	0	1	0.380860090255737	1	1	216.213711023331	500
72	2	0	0	0	2	0.393818140029907	2	1	219.229423046112	500
73	2	0	0	0	2	0.413989067077637	2	1	222.245126008987	300
74	2	1	0	0	2	0.535465955734253	2	1	225.060887098312	100
75	2	0	0	0	1	0.429512977600098	1	1	227.676504135132	200
76	2	0	0	0	2	0.351328134536743	2	1	230.392336130142	300
77	2	1	0	0	1	0.378891944885254	1	1	233.208148002625	200
78	2	0	0	0	1	0.4548180103302	1	1	235.923886060715	200
79	2	1	0	0	2	0.387195825576782	2	1	238.639680147171	400
80	2	0	0	0	2	0.463506937026978	2	1	241.555474042892	500
81	2	0	0	0	2	0.450946092605591	2	1	244.571184158325	300
82	2	0	0	0	1	0.361080884933472	1	1	247.386894226074	200
83	2	0	0	0	2	0.352380037307739	2	1	250.102648019791	500
84	2	0	1	0	1	0.429458856582642	1	1	253.118432998657	400
85	2	0	0	0	1	0.462925910949707	1	1	256.034135103226	500
86	2	0	0	0	1	0.417371034622192	1	1	259.049845218658	400
87	2	0	0	0	1	0.390288114547729	1	1	261.965546131134	100
88	2	0	0	0	2	0.398787975311279	2	1	264.581292152405	500
89	2	0	1	0	2	0.412906169891357	2	1	267.597082138062	200
90	2	0	0	0	2	0.434420824050903	2	1	270.312846183777	200
91	2	0	0	0	1	0.44166898727417	1	1	273.028542995453	400
92	2	0	0	0	2	0.411052942276001	2	1	275.944288015366	300
93	2	0	0	0	2	0.452453851699829	2	1	278.76007604599	400
94	2	0	0	0	2	0.406419038772583	2	1	281.675827026367	100
95	2	0	0	0	2	0.383615970611572	2	1	284.291524171829	100
96	2	1	0	0	1	0.440948963165283	1	1	286.907366037369	500
97	2	0	0	0	2	0.384798049926758	2	1	289.923201084137	100
98	2	0	1	0	1	0.412013053894043	1	1	292.538938999176	300
99	2	0	0	0	1	0.481712818145752	1	1	295.354710102081	200
100	2	0	0	0	1	0.459570169448853	1	1	298.070446014404	300
101	2	0	0	0	1	0.438921928405762	1	1	300.886251211166	100
102	2	0	0	0	2	0.414301872253418	2	1	303.50200009346	500
103	2	0	1	0	1	0.398311853408813	1	1	306.517775058746	400
104	2	0	0	0	2	0	0	99	309.433465003967	400
105	2	0	0	0	1	0.41062593460083	1	1	313.046764135361	100
106	2	0	0	0	2	0.411520957946777	2	1	315.664729118347	300
107	2	0	0	0	2	0.450917959213257	2	1	318.480558156967	300
108	2	0	0	0	1	0.396858930587769	1	1	321.296319007874	300
109	2	0	1	0	2	0.385323047637939	2	1	324.112064123154	500
110	2	0	0	0	1	0.364144086837769	1	1	327.127820014954	400
111	2	0	0	0	1	0.408843994140625	1	1	330.043522119522	100
112	2	0	0	0	1	0.42241907119751	1	1	332.659241199493	200
113	2	0	0	0	1	0.412992000579834	1	1	335.375061035156	300
114	2	1	0	0	2	0.405661821365356	2	1	338.190847158432	300
115	2	0	0	0	1	0.373357057571411	1	1	341.006655216217	200
116	2	0	0	0	2	0.366672992706299	2	1	343.722360134125	100
117	2	0	0	0	2	0.779292106628418	2	1	346.338147163391	200
118	2	0	0	0	2	0.43830680847168	2	1	349.053954124451	400
119	2	0	0	0	2	0.490409851074219	2	1	351.969757080078	200
120	2	0	0	0	2	0.396071910858154	2	1	354.685402154922	400
121	3	0	0	0	2	0.373846054077148	2	1	377.611136198044	300
122	3	0	0	0	1	0.360858201980591	1	1	380.427181005478	300
123	3	0	0	0	2	0.336989879608154	2	1	383.242928028107	400
124	3	0	0	0	2	0.413742065429688	2	1	386.158697128296	200
125	3	0	0	0	1	0.40143895149231	1	1	388.874405145645	100
126	3	0	0	0	2	0.338798999786377	2	1	391.490193128586	200
127	3	0	0	0	1	0.487264156341553	2	2	394.206071138382	300
128	3	0	0	0	2	0.454721927642822	2	1	397.021809101105	400
129	3	0	0	0	2	0.442923069000244	2	1	399.937557220459	200
130	3	0	0	0	2	0.416098117828369	2	1	402.65328502655	200
131	3	0	0	0	1	0.395333051681519	1	1	405.369084119797	100
132	3	0	1	0	2	0.419622898101807	2	1	407.984905004501	500
133	3	0	0	0	1	0.387609958648682	1	1	411.00068116188	300
134	3	1	0	0	1	0.63322901725769	1	1	413.816366195679	100
135	3	0	0	0	2	0.437463998794556	2	1	416.432065010071	100
136	3	0	0	0	1	0.390435218811035	1	1	419.047935009003	500
137	3	0	0	0	1	0.453147172927856	1	1	422.063763141632	200
138	3	0	0	0	1	0.389877080917358	1	1	424.779456138611	300
139	3	0	0	0	2	0.433405160903931	2	1	427.595253229141	300
140	3	1	0	0	2	0.451088905334473	2	1	430.411008119583	500
141	3	0	0	0	2	0.449961185455322	2	1	433.426767110825	500
142	3	0	0	0	2	0.426130056381226	2	1	436.442443132401	100
143	3	0	1	0	2	0.458230018615723	2	1	439.05813908577	200
144	3	0	0	0	1	0.439058065414429	1	1	441.773957014084	100
145	3	1	0	0	2	0.442512989044189	2	1	444.389741182327	500
146	3	0	0	0	1	0.416682958602905	1	1	447.405591011047	100
147	3	0	0	0	2	0.379239082336426	2	1	450.021216154099	500
148	3	0	0	0	1	0.368656873703003	1	1	453.037085056305	400
149	3	0	1	0	1	0.479689836502075	1	1	455.952841997147	300
150	3	0	0	0	1	0.409600019454956	1	1	458.768440008163	500
151	3	0	0	0	1	0.427533149719238	1	1	461.784242153168	500
152	3	0	0	0	2	0.381465196609497	2	1	464.799947023392	300
153	3	1	0	0	1	0.4219651222229	1	1	467.615638017654	300
154	3	0	0	0	2	0.369787931442261	2	1	470.4313352108	500
155	3	0	0	0	1	0.385258913040161	1	1	473.447148084641	500
156	3	0	0	0	2	0.39837384223938	2	1	476.462825059891	100
157	3	0	0	0	2	0.449111938476562	2	1	479.078515052795	100
158	3	0	0	0	2	0.439639091491699	2	1	481.694338083267	400
159	3	0	0	0	2	0.419053077697754	2	1	484.610113143921	300
160	3	0	1	0	2	0.448285102844238	2	1	487.425883054733	200
161	3	0	0	0	1	0.787817001342773	1	1	490.141564130783	300
162	3	0	0	0	2	0.367799997329712	2	1	492.957412004471	200
163	3	0	1	0	1	0.427797079086304	1	1	495.673188209534	500
164	3	0	0	0	2	0.404330015182495	2	1	498.688967227936	400
165	3	0	1	0	1	0.383932828903198	1	1	501.604672193527	400
166	3	0	0	0	1	0.45343017578125	1	1	504.520370006561	500
167	3	0	0	0	2	0.414491891860962	2	1	507.536098003387	400
168	3	0	0	0	1	0.36201000213623	1	1	510.451802015305	400
169	3	0	0	0	1	0.402194023132324	1	1	513.367524147034	300
170	3	1	0	0	2	0.474200963973999	2	1	516.183261156082	200
171	3	0	0	0	1	0.347615957260132	1	1	518.898997068405	200
172	3	0	0	0	1	0.454674005508423	1	1	521.614742040634	100
173	3	0	0	0	1	0.353072881698608	1	1	524.230473995209	400
174	3	0	0	0	1	0.370684862136841	1	1	527.146391153336	100
175	3	0	0	0	2	0.485052824020386	2	1	529.7621281147	400
176	3	0	0	0	2	0.481197834014893	2	1	532.677942037582	200
177	3	0	0	0	1	0.340718984603882	1	1	535.393615007401	400
178	3	0	0	0	1	0.413187026977539	1	1	538.309401035309	400
179	3	1	0	0	1	0.428573131561279	1	1	541.225170135498	100
180	3	0	0	0	2	0	0	99	543.840926170349	200
181	4	0	0	0	1	0.409672021865845	1	1	569.432349205017	400
182	4	0	0	0	1	0.422672986984253	1	1	572.348419189453	300
183	4	0	1	0	2	0.43685507774353	2	1	575.164162158966	200
184	4	0	0	0	2	0.423750877380371	2	1	577.879914045334	500
185	4	0	0	0	1	0.374280214309692	1	1	580.89569401741	100
186	4	0	0	0	1	0.434973001480103	1	1	583.511402130127	300
187	4	0	0	0	2	0.331236124038696	2	1	586.327172040939	400
188	4	0	0	0	2	0.401523113250732	2	1	589.24297118187	300
189	4	0	1	0	1	0.378360986709595	1	1	592.058745145798	200
190	4	0	0	0	2	0.423392057418823	2	1	594.774452209473	500
191	4	0	0	0	2	0.381838083267212	2	1	597.790238142014	500
192	4	0	0	0	2	0.412039995193481	2	1	600.805906057358	400
193	4	0	0	0	2	0.452644109725952	2	1	603.721611022949	100
194	4	0	0	0	1	0.402073860168457	1	1	606.337339162827	100
195	4	0	0	0	2	0.371150016784668	2	1	608.953152179718	300
196	4	0	0	0	1	0.414527893066406	1	1	611.768970012665	200
197	4	0	0	0	2	0.353140115737915	2	1	614.484727144241	100
198	4	0	0	0	2	0.489870071411133	2	1	617.100526094437	100
199	4	0	0	0	2	0.39998197555542	2	1	619.716334104538	200
200	4	0	1	0	1	0.41375994682312	1	1	622.432229042053	300
201	4	0	0	0	1	0.420922040939331	1	1	625.247945070267	400
202	4	1	0	0	1	0.478365182876587	1	1	628.163638114929	300
203	4	0	0	0	2	0.403783082962036	2	1	630.979426145554	200
204	4	0	0	0	2	0.422788858413696	2	1	633.695205211639	200
205	4	0	0	0	1	0.390778064727783	1	1	636.410972118378	400
206	4	0	0	0	1	0.415719032287598	1	1	639.326763153076	200
207	4	0	0	0	1	0.380262851715088	1	1	642.042464017868	200
208	4	0	0	0	1	0.384848117828369	1	1	644.758266210556	500
209	4	0	0	0	1	0.400366067886353	1	1	647.774064064026	400
210	4	0	1	0	2	0.392799139022827	2	1	650.689727067947	500
211	4	0	0	0	2	0.941265106201172	2	1	653.705434083939	200
212	4	1	0	0	2	0.4584641456604	2	1	656.421135187149	400
213	4	0	0	0	2	0.431458950042725	2	1	659.336948156357	400
214	4	1	0	0	2	0.450043916702271	2	1	662.252722024918	400
215	4	0	0	0	1	0.406584024429321	1	1	665.168364048004	300
216	4	0	0	0	1	0.483473062515259	1	1	667.984111070633	100
217	4	0	0	0	2	0.000433921813964844	1	2	670.599868059158	100
218	4	0	0	0	1	0.47040319442749	1	1	673.215700149536	500
219	4	0	0	0	1	0.492504119873047	1	1	676.231512069702	200
220	4	0	1	0	1	0.397047996520996	1	1	678.947206020355	100
221	4	0	0	0	1	0.419595003128052	1	1	681.562999010086	500
222	4	0	1	0	2	0.427858829498291	2	1	684.578811168671	100
223	4	0	0	0	1	0.368197917938232	1	1	687.194499015808	500
224	4	1	0	0	1	0.396907091140747	1	1	690.21032500267	200
225	4	0	0	0	2	0.384724140167236	2	1	692.925995111465	500
226	4	0	0	0	2	0.434159994125366	2	1	695.941804170609	100
227	4	0	0	0	2	0.495398044586182	2	1	698.557496070862	500
228	4	0	0	0	1	0.371060132980347	1	1	701.573266029358	400
229	4	0	0	0	2	0.398293018341064	2	1	704.489058017731	300
230	4	1	0	0	2	0.438531160354614	2	1	707.304718017578	300
231	4	0	0	0	2	0.398699998855591	2	1	710.120482206345	400
232	4	0	0	0	2	0.393301010131836	2	1	713.0363240242	400
233	4	0	0	0	2	0.376159906387329	2	1	715.951964139938	300
234	4	0	0	0	2	0.36083197593689	2	1	718.767655134201	300
235	4	1	0	0	1	0.415673971176147	1	1	721.583441019058	200
236	4	0	0	0	1	0.444514989852905	1	1	724.299167156219	100
237	4	0	0	0	1	0.428606033325195	1	1	726.914905071259	500
238	4	0	0	0	1	0.449590921401978	1	1	729.930777072906	300
239	4	0	0	0	1	0.460392951965332	1	1	732.74648809433	500
240	4	0	0	0	1	0.390326023101807	1	1	735.762256145477	100
