TrialNum	Block	Odd: Visual	Odd: Audio	Odd: Haptic	CueDirection	RT	RespDirection	Acc	TrialTime	ITI
1	1	0	0	0	1	0.489523741096491	1	1	0.000199859437998384	300
2	1	0	0	0	1	0.441169950790936	1	1	2.81363317166688	300
3	1	0	0	0	1	0.475928488187492	1	1	5.62975800971617	100
4	1	0	0	0	2	0.349142866121838	2	1	8.24485474263201	400
5	1	0	0	0	2	0.462611370312516	2	1	11.1606183259282	500
6	1	1	0	0	2	0.580103368702112	2	1	14.1767078116245	300
7	1	0	0	0	2	0.510516359121539	2	1	16.9924181739334	500
8	1	0	1	0	2	0.55510618374683	2	1	20.0073107486824	400
9	1	0	0	0	2	0.371355813607806	2	1	22.9235481560172	400
10	1	0	1	0	1	0.612808775593294	1	1	25.8386637200019	200
11	1	0	0	0	1	0.481248021067586	1	1	28.5541803502128	200
12	1	0	0	0	1	0.504133048001677	1	1	31.2703334508697	100
13	1	0	0	0	1	0.394425943086389	1	1	33.885682975495	300
14	1	1	0	0	1	0.66577088154736	1	1	36.701416435506	100
15	1	0	0	0	2	0.492716359061887	2	1	39.3176523350703	300
16	1	0	0	0	1	0.561670106195379	1	1	42.1326851643098	500
17	1	0	0	0	2	0.47534110036213	2	1	45.1490078727948	300
18	1	0	1	0	1	0.531119203165872	1	1	47.9644080199359	500
19	1	0	0	0	1	0.498856502556009	1	1	50.9803265183291	100
20	1	0	0	0	2	0.446668811753625	2	1	53.5957495065522	400
21	1	0	0	0	1	0.558235282980604	1	1	56.5110389449983	400
22	1	0	0	0	1	0.511842232313938	1	1	59.4270264478691	100
23	1	0	0	0	1	0.586804594262503	1	1	62.042732062313	100
24	1	0	0	0	2	0.417847992008319	2	1	64.6584088045929	200
25	1	0	0	0	2	0.443036053940887	2	1	67.3743636498402	500
26	1	0	1	0	2	0.480516914103646	2	1	70.3894843145681	500
27	1	0	0	0	2	0.404798743489664	2	1	73.4050893897947	300
28	1	1	0	0	2	0.409024984372081	2	1	76.2206521833432	200
29	1	0	0	0	2	0.430238634726265	2	1	78.9363173446909	500
30	1	0	1	0	1	0.552681244094856	1	1	81.9520193019998	200
31	1	0	0	0	1	0.470374128519325	1	1	84.6675503682636	200
32	1	0	0	0	1	0.478144265158335	1	1	87.383674275974	500
33	1	0	0	0	2	0.455756480747368	2	1	90.3993797621224	500
34	1	0	0	0	2	0.39795283638523	2	1	93.4151577494049	200
35	1	0	0	0	2	0.394798714609351	2	1	96.1301687962259	400
36	1	0	0	0	2	0.312371619191254	2	1	99.0458592367359	300
37	1	0	0	0	2	0.348463729023933	2	1	101.862056255137	500
38	1	0	0	0	1	0.841005572030554	1	1	104.877141310892	100
39	1	0	0	0	2	0.476615324500017	2	1	107.492733040766	100
40	1	0	0	0	2	0.474546153913252	2	1	110.108879115869	400
41	1	1	0	0	1	0.527801151765743	1	1	113.024513095297	300
42	1	0	0	0	1	0.448974413156975	1	1	115.839824380353	400
43	1	0	0	0	1	0.499018186557805	1	1	118.755509688053	100
44	1	1	0	0	2	0.54626200319035	2	1	121.371500495181	300
45	1	0	0	0	2	0.393216520897113	2	1	124.187355539034	200
46	1	0	0	0	2	0.332830423285486	2	1	126.90289398373	100
47	1	0	0	0	1	0.506304554321105	1	1	129.518215598597	300
48	1	0	0	0	2	0.493375606427435	2	1	132.333938792988	200
49	1	0	0	0	1	0.535736501216888	1	1	135.049589518254	200
50	1	0	0	0	2	0.399103231087793	2	1	137.765299271065	100
51	1	0	0	0	1	0.508384632179514	1	1	140.38098756221	400
52	1	0	0	0	2	0.43386369329528	2	1	143.297318322817	200
53	1	0	1	0	2	0.492895687173586	2	1	146.01282821619	400
54	1	0	0	0	2	0.421206464408897	2	1	148.928665583866	500
55	1	1	0	0	1	0.639018269983353	1	1	151.944176343386	400
56	1	0	0	0	1	0.485495755652664	1	1	154.859268488857	200
57	1	0	0	0	1	0.495330571662635	1	1	157.574870452285	400
58	1	0	0	0	1	0.459859854599927	1	1	160.491170415946	100
59	1	0	0	0	1	0.459675714431796	1	1	163.106205234159	300
60	1	0	0	0	1	0.551134659384843	1	1	165.922278102313	500
61	2	0	0	0	1	0.459985288034659	1	1	176.652313252562	300
62	2	0	0	0	1	0.369530773052247	1	1	179.46747055283	400
63	2	0	0	0	1	0.37324276889558	1	1	182.38277827698	200
64	2	0	0	0	1	0.402708720765077	1	1	185.098390506086	300
65	2	0	0	0	2	0.425908133300254	2	1	187.913954582851	300
66	2	0	0	0	1	0.540713417954976	1	1	190.730237896874	400
67	2	0	0	0	2	0.457465070299804	2	1	193.645406713942	200
68	2	0	0	0	2	0.333591364789754	2	1	196.361042682343	400
69	2	0	0	0	2	0.34401934305788	2	1	199.276729594072	300
70	2	0	0	0	2	0.41171715175733	2	1	202.092864697741	100
71	2	0	0	0	2	0.492059036507271	2	1	204.708521229535	500
72	2	0	0	0	2	0.517193524545291	2	1	207.72414715687	400
73	2	1	0	0	1	0.630917066038819	1	1	210.639205938962	500
74	2	0	0	0	1	0.474453121423721	1	1	213.655429519742	400
75	2	0	0	0	2	0.431585039244965	2	1	216.570411951019	400
76	2	1	0	0	1	0.57578794498113	1	1	219.486508205649	300
77	2	0	0	0	1	0.423950601689285	1	1	222.301828793949	500
78	2	0	0	0	2	0.453728051943472	2	1	225.317826530372	400
79	2	0	0	0	1	0.48717290663626	1	1	228.233650424372	100
80	2	0	0	0	2	0.359874964342453	2	1	230.849060259701	200
81	2	0	1	0	2	0.486269850021927	2	1	233.564422263531	100
82	2	0	0	0	2	0.440226152335526	2	1	236.180116329109	200
83	2	0	0	0	1	0.595048554940149	1	1	238.895850142027	300
84	2	0	0	0	1	0.494014001713367	1	1	241.711908894911	500
85	2	0	0	0	1	0.511564097309019	1	1	244.727218190994	300
86	2	0	1	0	1	0.754527393408353	1	1	247.54332313934	100
87	2	0	0	0	2	0.48761465048301	2	1	250.15883498959	200
88	2	1	0	0	2	0.457630924764089	2	1	252.874754546647	500
89	2	0	0	0	2	0.419833112566266	2	1	255.88988323143	400
90	2	0	0	0	1	0.512558261572849	1	1	258.806104277872	200
91	2	0	1	0	1	0.405700516916113	1	1	261.521129439934	500
92	2	0	0	0	1	0.366249613842228	1	1	264.536715587863	100
93	2	0	0	0	2	0.44599384511821	2	1	267.152746815962	500
94	2	0	1	0	2	0.490989162994083	2	1	270.168690336926	500
95	2	0	0	0	2	0.430410905188182	2	1	273.183713157137	300
96	2	0	0	0	1	0.599665852991166	1	1	275.999881303404	300
97	2	0	0	0	1	0.423265369376168	1	1	278.814952308021	400
98	2	0	0	0	2	0.38803461191128	2	1	281.730901956296	100
99	2	0	0	0	1	0.489419480523793	1	1	284.346233836812	200
100	2	0	0	0	1	0.402042415749747	1	1	287.062461684254	400
101	2	0	1	0	2	0.476445941225393	2	1	289.977535223239	100
102	2	0	0	0	2	0.409083049453329	2	1	292.593170902925	500
103	2	0	1	0	1	0.608091387402965	1	1	295.609045130695	200
104	2	0	0	0	1	0.451442340243375	1	1	298.325195985759	100
105	2	0	0	0	1	0.404023365903413	1	1	300.940810492524	100
106	2	0	0	0	2	0.416499341896269	2	1	303.556055435824	200
107	2	0	0	0	2	0.393216520897113	2	1	306.272230030183	500
108	2	0	0	0	2	0.456468981225044	2	1	309.287856919924	500
109	2	0	0	0	1	0.52680634582066	1	1	312.303506265744	100
110	2	1	0	0	1	0.526115659886273	1	1	314.91867517904	500
111	2	0	0	0	1	0.470084123808192	1	1	317.934390289214	300
112	2	1	0	0	2	0.448543897364289	2	1	320.749999599007	200
113	2	0	0	0	1	0.539305740327109	1	1	323.465663156356	100
114	2	0	0	0	2	0.435266879678238	2	1	326.081352409907	300
115	2	0	0	0	1	0.542698217730504	1	1	328.897082661919	200
116	2	0	0	0	2	0.410670376004418	2	1	331.612755522539	100
117	2	0	0	0	1	0.541389026213437	1	1	334.228984043672	400
118	2	1	0	0	2	0.468707243155222	2	1	337.144549050747	300
119	2	0	0	0	2	0.378340948635014	2	1	339.959669779637	400
120	2	0	0	0	2	0.410904240387026	2	1	342.875465443096	200
121	3	0	0	0	2	0.417494468565565	2	1	352.789932666958	100
122	3	1	0	0	1	0.49843657319434	1	1	355.404216809315	300
123	3	0	0	0	1	0.473655929323286	1	1	358.219939682895	400
124	3	1	0	0	2	0.351700296858326	2	1	361.135584890377	100
125	3	0	0	0	2	0.367698995658429	2	1	363.751587567152	100
126	3	0	0	0	2	0.426082328602206	2	1	366.366983287211	200
127	3	0	1	0	1	0.593851964804344	1	1	369.082694964804	300
128	3	0	0	0	1	0.475632709043566	1	1	371.898389287031	200
129	3	0	0	0	1	0.426297907310072	1	1	374.613912654051	200
130	3	1	0	0	1	0.517687238287181	1	1	377.330243799632	500
131	3	0	0	0	1	0.517260572087253	1	1	380.345448514388	100
132	3	0	0	0	2	0.484871154825669	2	1	382.961519842705	300
133	3	1	0	0	1	0.608901090774452	1	1	385.776758626598	400
134	3	0	0	0	1	0.579248753143474	1	1	388.69233550335	200
135	3	1	0	0	2	0.495613839506404	2	1	391.408059692214	400
136	3	0	0	0	2	0.426954588270746	2	1	394.324315064441	500
137	3	0	0	0	1	0.555084048450226	1	1	397.339996490453	300
138	3	0	0	0	1	0.43279574465123	1	1	400.155538111081	100
139	3	0	1	0	1	0.614020122622605	1	1	402.770636127214	300
140	3	0	0	0	2	0.402988780610031	2	1	405.586364775227	500
141	3	0	0	0	2	0.440544708369998	2	1	408.602419614326	400
142	3	0	0	0	1	0.521067204419523	1	1	411.517983017402	100
143	3	0	0	0	1	0.512428016139893	1	1	414.133251058403	300
144	3	0	1	0	2	0.470101447106572	2	1	416.949329059426	500
145	3	0	0	0	2	0.455715097341454	2	1	419.964478596288	200
146	3	0	0	0	1	0.430971666472033	1	1	422.680085050932	400
147	3	0	0	0	2	0.569236533803632	2	1	425.595900283311	500
148	3	0	0	0	2	0.417581726622302	2	1	428.611972124927	400
149	3	1	0	0	2	0.570912722381763	2	1	431.527641713328	200
150	3	0	0	0	1	0.500026786932722	1	1	434.243363656598	100
151	3	0	0	0	2	0.500471418024972	2	1	436.858466163947	100
152	3	0	0	0	2	0.418670206592651	2	1	439.474174023984	400
153	3	0	1	0	2	0.460609247238608	2	1	442.39027124102	100
154	3	0	0	0	2	0.392287158523686	2	1	445.005533186777	300
155	3	0	0	0	1	0.628927775047487	1	1	447.821694917016	300
156	3	0	0	0	2	0.480637535540154	2	1	450.636803455418	400
157	3	0	0	0	2	0.449470693332842	2	1	453.553077113349	200
158	3	0	0	0	2	0.302891609782819	2	1	456.268787186942	100
159	3	0	0	0	2	0.396349469752749	2	1	458.883921453642	500
160	3	0	0	0	1	0.619350241933716	1	1	461.899645225465	500
161	3	0	0	0	2	0.563512790831737	2	1	464.915647453105	400
162	3	0	0	0	2	0.391716773214284	2	1	467.830820440606	400
163	3	0	1	0	1	0.521729339001467	1	1	470.746335723437	300
164	3	0	0	0	1	0.45350605720887	1	1	473.562548461108	500
165	3	0	1	0	2	0.524881856777938	2	1	476.578173105227	500
166	3	0	0	0	1	0.647922440432012	1	1	479.593663012638	200
167	3	0	0	0	2	0.481850807351293	2	1	482.309528995829	100
168	3	0	0	0	2	0.477108075836441	2	1	484.925063943811	200
169	3	0	0	0	1	0.576461307617137	1	1	487.640327782312	200
170	3	0	0	0	1	0.489383871579776	1	1	490.356566857809	500
171	3	0	0	0	1	0.492984870041255	1	1	493.372309236118	300
172	3	0	0	0	2	0.395143897185335	2	1	496.18734078214	300
173	3	0	0	0	2	0.376373151346343	2	1	499.002999495395	200
174	3	0	0	0	1	0.531536886905087	1	1	501.719034220238	200
175	3	0	0	0	1	0.433688214805443	1	1	504.434937737213	400
176	3	0	0	0	1	0.463976060476853	1	1	507.350395275746	400
177	3	0	0	0	2	0.355953164224047	2	1	510.265679902193	500
178	3	0	0	0	1	0.552059209701838	1	1	513.281295884663	100
179	3	0	0	0	1	0.541818900412181	1	1	515.896901408996	300
180	3	0	0	0	1	0.431385500618489	1	1	518.712615941738	500
181	4	0	0	0	2	0.451968775712885	2	1	528.06140945488	200
182	4	0	0	0	1	0.372299291251693	1	1	530.774960533396	400
183	4	0	0	0	2	0.381544473842951	2	1	533.690622101771	100
184	4	0	0	0	2	0.292912112199701	2	1	536.306267084699	100
185	4	0	0	0	1	0.631119491881691	1	1	538.922017611389	100
186	4	0	0	0	1	0.417909265117487	1	1	541.537567316234	400
187	4	0	0	0	1	0.489364944281988	1	1	544.453815951623	300
188	4	0	0	0	2	0.301436774316244	2	1	547.269461832795	300
189	4	0	1	0	1	0.530194011225831	1	1	550.085225448187	500
190	4	0	0	0	1	0.58117003418738	1	1	553.100407386024	200
191	4	0	0	0	2	0.396580446948064	2	1	555.816000687802	300
192	4	0	0	0	1	0.590323788317619	1	1	558.632153114799	300
193	4	0	0	0	1	0.503443645255174	1	1	561.447906143701	200
194	4	0	0	0	1	0.529211716580903	1	1	564.163039095147	200
195	4	1	0	0	1	0.494559043698246	1	1	566.878715484549	500
196	4	0	0	0	1	0.44888843834633	1	1	569.894410384237	300
197	4	0	0	0	2	0.451593437814154	2	1	572.710401447985	200
198	4	0	0	0	2	0.353900033718674	2	1	575.425665286486	100
199	4	0	0	0	2	0.366999648074852	2	1	578.041621126205	300
200	4	0	1	0	1	0.508970415976364	1	1	580.857678595901	100
201	4	0	0	0	1	0.514974218793213	1	1	583.473372982291	500
202	4	0	1	0	1	0.507811359624611	1	1	586.488466699666	400
203	4	0	0	0	2	0.42877321279957	2	1	589.404084639042	500
204	4	0	0	0	1	0.599562234099722	1	1	592.420274214848	300
205	4	1	0	0	1	0.510373281576904	1	1	595.235305440059	400
206	4	0	0	0	2	0.49528052660753	2	1	598.151500180771	100
207	4	0	0	0	2	0.4920962494798	2	1	600.766967760399	400
208	4	1	0	0	1	0.611847012274666	1	1	603.682306602335	500
209	4	0	0	0	1	0.555828308220953	1	1	606.697895958263	200
210	4	0	0	0	1	0.545217473030789	1	1	609.414076327055	200
211	4	0	1	0	2	0.596468102186918	2	1	612.129694972187	100
212	4	0	0	0	1	0.540994119364768	1	1	614.744776306616	400
213	4	0	0	0	2	0.429687497497071	2	1	617.661078836682	400
214	4	0	0	0	1	0.665922941523604	1	1	620.576604064379	500
215	4	0	0	0	1	0.483165773301153	1	1	623.592252447794	400
216	4	0	0	0	2	0.418317003990524	2	1	626.507903429738	400
217	4	0	0	0	2	0.498749033984495	2	1	629.423123575049	500
218	4	1	0	0	2	0.368175065319519	2	1	632.438740840735	100
219	4	0	0	0	2	0.404894021572545	2	1	635.054350214661	300
220	4	0	0	0	2	0.42605634368374	2	1	637.870059293782	200
221	4	0	0	0	1	0.638087624392938	1	1	640.585976284434	500
222	4	0	0	0	1	0.542237546556862	1	1	643.601749459689	200
223	4	1	0	0	2	0.529686502995901	2	1	646.317443814012	100
224	4	0	0	0	1	0.550854599539889	1	1	648.933189207863	500
225	4	0	0	0	1	0.600378032657318	1	1	651.948440438864	300
226	4	0	0	0	2	0.426005977817113	2	1	654.764029538142	500
227	4	0	0	0	2	0.497632965067169	2	1	657.779685300018	300
228	4	1	0	0	2	0.497390118223848	2	1	660.595150569861	100
229	4	0	0	0	1	0.566485659684986	1	1	663.211262960802	300
230	4	0	0	0	1	0.521807935409015	1	1	666.02665027586	400
231	4	0	0	0	2	0.571381092799129	2	1	668.942721828731	100
232	4	0	0	0	2	0.480095059960149	2	1	671.557944315893	500
233	4	0	1	0	2	0.568452173756668	2	1	674.574177199946	200
234	4	0	0	0	1	0.596881615521852	1	1	677.289583795151	200
235	4	0	0	0	1	0.559305477276212	1	1	680.004966971872	300
236	4	0	1	0	2	0.451620385167189	2	1	682.821308351035	500
237	4	0	0	0	2	0.521688276407076	2	1	685.836344965734	200
238	4	0	0	0	2	0.327029046340613	2	1	688.552366858494	100
239	4	0	0	0	2	0.388631944602821	2	1	691.167968854017	400
240	4	0	0	0	2	0.45138716234942	2	1	694.083366402658	400
