TrialNum	Block	Odd: Visual	Odd: Audio	Odd: Haptic	CueDirection	RT	RespDirection	Acc	TrialTime	ITI
1	1	0	0	0	2	0.546740770339966	2	1	0.00026702880859375	400
2	1	0	0	0	2	0.44817590713501	2	1	2.93204593658447	500
3	1	0	0	0	1	0.592634916305542	1	1	5.94749808311462	400
4	1	0	0	0	1	0.49100399017334	1	1	8.86282205581665	400
5	1	0	0	0	1	0.479640960693359	1	1	11.7784991264343	200
6	1	0	0	0	1	0.558096885681152	1	1	14.4942049980164	300
7	1	0	0	0	2	0.403759956359863	2	1	17.3100230693817	200
8	1	0	0	0	1	0.494238138198853	1	1	20.0258030891418	500
9	1	1	0	0	2	0.432703971862793	2	1	23.0416121482849	400
10	1	0	0	0	1	0.438374042510986	1	1	25.9572930335999	500
11	1	0	0	0	2	0.333820104598999	2	1	28.9730019569397	200
12	1	1	0	0	2	0.491569042205811	2	1	31.6886970996857	200
13	1	0	0	0	1	0.589140892028809	1	1	34.4044210910797	100
14	1	0	1	0	2	0.710885047912598	2	1	37.0202059745789	400
15	1	0	0	0	2	0.563180923461914	1	2	39.9360289573669	300
16	1	0	0	0	2	0.486552953720093	2	1	42.7517499923706	300
17	1	0	0	0	1	0.573144912719727	1	1	45.5675010681152	300
18	1	0	0	0	1	0.616544961929321	1	1	48.3832471370697	200
19	1	0	0	0	1	0.688852071762085	1	1	51.0989949703217	400
20	1	1	0	0	1	0.632410049438477	1	1	54.0147960186005	100
21	1	0	0	0	2	0.601308107376099	2	1	56.6305069923401	100
22	1	0	1	0	2	0.626158952713013	2	1	59.2463171482086	200
23	1	0	0	0	1	0.554295063018799	1	1	61.9621541500092	300
24	1	0	0	0	2	0.350760936737061	2	1	64.7779319286346	100
25	1	0	0	0	2	0.350687980651855	2	1	67.3936829566956	200
26	1	0	0	0	1	0.427946090698242	1	1	70.1095559597015	300
27	1	0	1	0	1	0.556051969528198	1	1	72.9253289699554	300
28	1	0	0	0	2	0.404072046279907	2	1	75.7410571575165	200
29	1	0	0	0	2	0.473748207092285	2	1	78.4568030834198	100
30	1	0	0	0	2	0.385026931762695	2	1	81.0725750923157	500
31	1	0	0	0	2	0.403970003128052	2	1	84.0883891582489	400
32	1	0	0	0	1	0.486981153488159	1	1	87.0040879249573	400
33	1	0	0	0	1	0.579230070114136	1	1	89.9198160171509	200
34	1	0	1	0	1	0.541630029678345	1	1	92.6355259418488	300
35	1	0	0	0	2	0.38485312461853	2	1	95.4513051509857	200
36	1	0	1	0	1	0.410521984100342	1	1	98.1670899391174	500
37	1	0	0	0	1	0.498608112335205	1	1	101.182863950729	500
38	1	0	1	0	2	0.523000955581665	2	1	104.198562145233	100
39	1	0	0	0	1	0.634483814239502	1	1	106.814257144928	100
40	1	0	0	0	2	0.383436918258667	2	1	109.430073022842	300
41	1	0	0	0	1	0.516322135925293	1	1	112.245870113373	200
42	1	0	0	0	2	0.740291118621826	2	1	114.961630105972	300
43	1	0	0	0	1	0.518496036529541	1	1	117.777403116226	300
44	1	0	0	0	2	0.376452207565308	2	1	120.593145132065	500
45	1	1	0	0	2	0.432061910629272	2	1	123.609022140503	500
46	1	0	0	0	2	0.531627178192139	2	1	126.624598026276	400
47	1	1	0	0	1	0.523319005966187	1	1	129.540275096893	500
48	1	0	0	0	1	0.531782150268555	1	1	132.555997133255	400
49	1	0	0	0	2	0.41941499710083	2	1	135.471683979034	500
50	1	0	0	0	1	0.476781845092773	1	1	138.48740196228	500
51	1	0	0	0	2	0.426723003387451	2	1	141.503088951111	500
52	1	0	0	0	2	0.394251108169556	2	1	144.518787145615	400
53	1	0	0	0	1	0.000405073165893555	1	1	147.434464931488	100
54	1	0	0	0	2	0.000489950180053711	1	2	150.05025100708	100
55	1	0	0	0	1	0.000573158264160156	1	1	152.66606593132	100
56	1	1	0	0	1	0.000441074371337891	1	1	155.281895160675	100
57	1	0	0	0	2	0.000837087631225586	1	2	157.897722959518	200
58	1	0	0	0	1	0.000882148742675781	1	1	160.61357998848	400
59	1	0	0	0	1	0.000564098358154297	1	1	163.529313087463	100
60	1	0	0	0	2	0.000462055206298828	1	2	166.145022153854	300
61	2	0	0	0	1	0.495247840881348	1	1	189.187482118607	200
62	2	0	0	0	1	0.42109489440918	1	1	191.903340101242	500
63	2	0	0	0	2	0.420383930206299	2	1	194.919119119644	400
64	2	1	0	0	1	0.401564836502075	1	1	197.834803104401	500
65	2	0	0	0	2	0.375018119812012	2	1	200.850445985794	500
66	2	0	0	0	1	0.462226152420044	1	1	203.866209983826	200
67	2	0	1	0	1	0.626929044723511	1	1	206.581895112991	400
68	2	0	0	0	2	0.503428936004639	2	1	209.497697114944	200
69	2	0	0	0	1	0.363795042037964	1	1	212.213416099548	300
70	2	0	0	0	2	0.355386018753052	2	1	215.02919793129	400
71	2	0	0	0	2	0.386126041412354	2	1	217.94498705864	200
72	2	0	0	0	2	0.480659961700439	2	1	220.660681962967	200
73	2	0	0	0	1	0.391960144042969	1	1	223.376484155655	100
74	2	0	0	0	1	0.497292995452881	1	1	225.992265939713	400
75	2	0	0	0	2	0.631457090377808	2	1	228.908012151718	300
76	2	0	0	0	2	0.438215970993042	2	1	231.723721027374	300
77	2	0	0	0	2	0.395462036132812	2	1	234.539485931396	500
78	2	1	0	0	2	0.476672172546387	2	1	237.555232048035	100
79	2	0	0	0	2	0.492769002914429	2	1	240.170925140381	100
80	2	1	0	0	1	0.636828184127808	1	1	242.786741018295	500
81	2	0	0	0	1	0.494874954223633	1	1	245.802561044693	400
82	2	0	1	0	2	0.610583066940308	2	1	248.71826505661	300
83	2	0	0	0	2	0.435574054718018	2	1	251.533966064453	200
84	2	0	0	0	2	0.52908992767334	2	1	254.249743938446	100
85	2	0	0	0	2	0.398191928863525	2	1	256.865535020828	200
86	2	0	0	0	1	0.425807952880859	2	2	259.58136510849	200
87	2	0	1	0	1	0.539149045944214	1	1	262.297137022018	200
88	2	0	0	0	1	0.382704973220825	1	1	265.012948989868	400
89	2	0	0	0	2	0.39005184173584	2	1	267.928719997406	500
90	2	0	0	0	1	0.496459007263184	1	1	270.961223125458	100
91	2	0	0	0	1	0.414140939712524	1	1	273.593443155289	400
92	2	0	0	0	1	0.517990112304688	1	1	276.509276151657	100
93	2	0	0	0	1	0.53664493560791	1	1	279.125076055527	400
94	2	0	0	0	2	0.358314037322998	2	1	282.057471990585	300
95	2	0	0	0	1	0.519686937332153	1	1	284.873278141022	100
96	2	0	0	0	2	0.486510992050171	2	1	287.488935947418	400
97	2	0	1	0	1	0.619450092315674	1	1	290.404924154282	500
98	2	0	0	0	1	0.511837959289551	1	1	293.420475006104	200
99	2	1	0	0	1	0.564174890518188	1	1	296.136285066605	500
100	2	0	0	0	2	0.502559900283813	2	1	299.168591022491	200
101	2	0	0	0	2	0.371796846389771	2	1	301.884293079376	100
102	2	0	0	0	1	0.420788049697876	1	1	304.500072956085	100
103	2	0	0	0	2	0.000391006469726562	2	1	307.115895032883	500
104	2	0	0	0	2	0.486484050750732	2	1	310.131705999374	300
105	2	0	0	0	2	0.446213006973267	2	1	312.947395086288	400
106	2	1	0	0	2	0.392056941986084	2	1	315.863363981247	400
107	2	0	0	0	2	0.401695966720581	2	1	318.795524120331	200
108	2	1	0	0	2	0.599837064743042	2	1	321.51123213768	300
109	2	0	0	0	1	0.467867136001587	1	1	324.327028036118	300
110	2	0	0	0	1	0.513252019882202	1	1	327.142765045166	100
111	2	0	0	0	1	0.433815002441406	2	2	329.758538961411	500
112	2	0	0	0	1	0.558579206466675	1	1	332.774493932724	100
113	2	0	0	0	2	0.554334878921509	2	1	335.406684160233	300
114	2	0	0	0	1	0.449482202529907	1	1	338.222506999969	300
115	2	0	0	0	1	0.529537916183472	1	1	341.038258075714	500
116	2	0	0	0	1	0.537110805511475	1	1	344.054013967514	100
117	2	0	0	0	2	0.563431024551392	2	1	346.669760942459	500
118	2	0	1	0	2	0.867361068725586	2	1	349.685657024384	300
119	2	0	0	0	1	0.601063966751099	1	1	352.517828941345	400
120	2	0	1	0	2	0.590996026992798	2	1	355.433628082275	300
121	3	0	0	0	2	0.508515119552612	2	1	447.00546002388	400
122	3	0	0	0	2	0.392366886138916	2	1	449.919472932816	100
123	3	0	0	0	2	0.445436000823975	2	1	452.535194158554	300
124	3	0	0	0	1	0.336694002151489	1	1	455.351006984711	100
125	3	0	0	0	1	0.42784595489502	1	1	457.966772079468	500
126	3	0	0	0	2	0.433444976806641	1	2	460.982607126236	400
127	3	0	1	0	1	0.612953186035156	1	1	463.898254156113	200
128	3	0	0	0	1	0.405831098556519	1	1	466.613973140717	300
129	3	0	0	0	2	0.477753162384033	1	2	469.429751157761	400
130	3	0	1	0	1	0.522186994552612	1	1	472.345492124557	500
131	3	0	0	0	2	0.342411041259766	2	1	475.361253023148	200
132	3	0	0	0	1	0.37021803855896	1	1	478.076863050461	100
133	3	0	0	0	2	0.418061017990112	2	1	480.692691087723	200
134	3	0	1	0	2	0.717092037200928	2	1	483.408421993256	200
135	3	0	0	0	2	0.579513072967529	2	1	486.124280929565	300
136	3	0	0	0	2	0.529301881790161	2	1	488.940071105957	200
137	3	0	0	0	1	0.419809103012085	1	1	491.655838012695	300
138	3	0	0	0	2	0.397746086120605	2	1	494.471616983414	500
139	3	1	0	0	1	0.496923923492432	1	1	497.487354040146	500
140	3	0	0	0	1	0.569787979125977	1	1	500.503046035767	100
141	3	0	0	0	2	0.743517160415649	2	1	503.118723154068	300
142	3	0	0	0	1	0.517113924026489	1	1	505.934551000595	200
143	3	1	0	0	2	0.470843076705933	2	1	508.650316953659	200
144	3	0	0	0	1	0.467147827148438	1	1	511.366101980209	500
145	3	0	0	0	1	0.502718925476074	1	1	514.381886959076	400
146	3	0	0	0	1	0.45912504196167	1	1	517.297572135925	200
147	3	0	0	0	2	0.587404012680054	2	1	520.013267040253	200
148	3	0	0	0	1	0.454000949859619	1	1	522.729056119919	100
149	3	0	0	0	1	0.418617010116577	1	1	525.344841957092	400
150	3	1	0	0	1	0.505282163619995	1	1	528.260630130768	400
151	3	0	0	0	2	0.478127002716064	1	2	531.176356077194	100
152	3	0	0	0	2	0.455327033996582	2	1	533.792093992233	300
153	3	0	0	0	2	0.423640966415405	2	1	536.607887029648	100
154	3	0	0	0	1	0.559342861175537	1	1	539.223644971848	400
155	3	0	0	0	1	0.450336933135986	2	2	542.139451026917	300
156	3	0	0	0	1	0.434794902801514	1	1	544.955178976059	100
157	3	0	0	0	1	0.42177414894104	1	1	547.570951938629	100
158	3	0	0	0	1	0.387217044830322	1	1	550.186785936356	200
159	3	1	0	0	2	0.575059175491333	2	1	552.902554988861	100
160	3	0	0	0	1	0.506560087203979	1	1	555.518332958221	400
161	3	0	0	0	2	0.714030027389526	2	1	558.434141159058	300
162	3	0	1	0	1	0.685406923294067	1	1	561.249858140945	300
163	3	0	0	0	1	0.541187047958374	1	1	564.065626144409	500
164	3	0	0	0	2	0.406023979187012	2	1	567.081361055374	500
165	3	0	0	0	2	0.670306921005249	2	1	570.097077131271	100
166	3	0	0	0	1	0.502480983734131	1	1	572.712751150131	400
167	3	1	0	0	2	0.557793855667114	2	1	575.628577947617	300
168	3	0	0	0	2	0.522529125213623	1	2	578.444278001785	500
169	3	0	1	0	2	0.588682889938354	1	2	581.460217952728	500
170	3	0	0	0	1	0.0336830615997314	1	1	584.492383003235	200
171	3	0	0	0	2	0.646926879882812	1	2	587.208101034164	400
172	3	0	0	0	2	0.595087051391602	2	1	590.123878955841	100
173	3	0	0	0	2	0.452738046646118	2	1	592.739544153214	500
174	3	0	0	0	2	0.452261924743652	2	1	595.755380153656	500
175	3	0	0	0	2	0.458026885986328	2	1	598.771064996719	400
176	3	1	0	0	1	0.545051097869873	1	1	601.68674993515	500
177	3	0	0	0	1	0.534379005432129	1	1	604.702508926392	200
178	3	0	0	0	1	0.522296905517578	1	1	607.418153047562	300
179	3	0	0	0	1	0.557623863220215	1	1	610.233947038651	400
180	3	0	1	0	2	0	0	99	613.149703979492	300
181	4	0	0	0	2	0.482362985610962	1	2	620.94682097435	100
182	4	0	0	0	1	0	0	99	623.562830924988	200
183	4	0	0	0	1	0.561213970184326	1	1	627.265697956085	400
184	4	1	0	0	2	0.541566848754883	2	1	630.177447080612	400
185	4	0	0	0	1	0.393632888793945	1	1	633.093182086945	400
186	4	0	0	0	2	0.118743896484375	1	2	636.008891105652	300
187	4	0	1	0	1	0.588550090789795	1	1	638.824635982513	500
188	4	0	0	0	2	0.399467945098877	2	1	641.840399980545	200
189	4	0	0	0	2	0.505604028701782	2	1	644.556045055389	300
190	4	0	0	0	1	0.51337194442749	1	1	647.371813058853	200
191	4	0	0	0	2	0	0	99	650.087583065033	400
192	4	1	0	0	1	0.476121187210083	1	1	653.788942098618	500
193	4	0	0	0	2	0.45799994468689	2	1	656.802132129669	100
194	4	1	0	0	2	0	0	99	659.417870044708	300
195	4	0	0	0	1	0.449858903884888	1	1	663.089235067368	300
196	4	0	1	0	2	0.680929899215698	2	1	665.899157047272	300
197	4	0	0	0	1	0.415836811065674	1	1	668.715039968491	100
198	4	0	0	0	2	0.401700019836426	2	1	671.3473341465	300
199	4	0	1	0	2	0.533313989639282	2	1	674.163116931915	100
200	4	0	0	0	2	0.492235898971558	2	1	676.778892040253	100
201	4	0	0	0	1	0.0041499137878418	1	1	679.394705057144	100
202	4	0	0	0	1	0.000514984130859375	1	1	682.010518074036	500
203	4	0	0	0	2	0.475779056549072	2	1	685.026332139969	400
204	4	0	0	0	1	0.487438917160034	1	1	687.942005157471	100
205	4	0	0	0	1	0.455690860748291	1	1	690.557739973068	200
206	4	1	0	0	1	0.387418985366821	1	1	693.273679018021	400
207	4	0	0	0	2	0.354166030883789	2	1	696.20597910881	500
208	4	0	0	0	2	0.548372983932495	2	1	699.221719026566	500
209	4	0	1	0	1	0.620139122009277	1	1	702.237395048141	500
210	4	0	0	0	2	0.445039987564087	2	1	705.253304958344	100
211	4	0	0	0	1	0.458031892776489	1	1	707.885407924652	200
212	4	0	0	0	2	0.412918090820312	2	1	710.601231098175	200
213	4	0	0	0	1	0.528124094009399	1	1	713.317105054855	300
214	4	0	0	0	1	0.739297151565552	1	1	716.149451971054	300
215	4	1	0	0	1	0.528920888900757	1	1	718.965197086334	300
216	4	0	0	0	2	0.51121997833252	2	1	721.780966043472	400
217	4	0	0	0	2	0.525470018386841	2	1	724.696691036224	500
218	4	0	0	0	1	0.541009902954102	1	1	727.712401151657	400
219	4	0	0	0	2	0.609179019927979	2	1	730.628113031387	400
220	4	0	0	0	1	0.764538049697876	1	1	733.543930053711	200
221	4	0	0	0	2	0.433065891265869	2	1	736.276196956635	400
222	4	0	0	0	2	0.905014991760254	2	1	739.191983938217	100
223	4	0	0	0	1	0.588133811950684	2	2	741.807783126831	500
224	4	0	0	0	1	0.53975510597229	2	2	744.840181112289	500
225	4	0	1	0	1	0.66789698600769	2	2	747.855864048004	300
226	4	0	0	0	1	0.507977962493896	1	1	750.671541929245	300
227	4	0	0	0	1	0.382294893264771	2	2	753.48729300499	100
228	4	0	0	0	2	0	0	99	756.10303902626	300
229	4	0	0	0	1	0.538995027542114	2	2	759.821418046951	500
230	4	0	0	0	2	0.686952114105225	1	2	762.834286928177	100
231	4	0	0	0	1	0.561188936233521	2	2	765.449933052063	100
232	4	0	0	0	2	0.468788862228394	1	2	768.065736055374	400
233	4	0	0	0	2	0.824761152267456	1	2	770.981586933136	500
234	4	0	1	0	2	0.687183856964111	1	2	773.99729013443	200
235	4	0	0	0	2	0.619969129562378	2	1	776.712964057922	200
236	4	0	0	0	2	0.548099040985107	2	1	779.428754091263	200
237	4	1	0	0	2	0.533247947692871	2	1	782.144516944885	200
238	4	0	0	0	1	0.416451930999756	1	1	784.860310077667	500
239	4	0	0	0	1	0.527691125869751	1	1	787.876085996628	400
240	4	0	0	0	1	0.440030097961426	1	1	790.791774988174	200
