TrialNum	Block	Odd: Visual	Odd: Audio	Odd: Haptic	CueDirection	RT	RespDirection	Acc	TrialTime	ITI
1	1	0	0	0	1	0.408074855804443	1	1	0.000163078308105469	300
2	1	0	0	0	1	0.424372911453247	1	1	2.81572914123535	100
3	1	0	0	0	2	0.335305213928223	2	1	5.4312150478363	200
4	1	0	1	0	1	0.485594034194946	1	1	8.14700603485107	300
5	1	0	0	0	1	0.446789026260376	1	1	10.9627799987793	400
6	1	1	0	0	2	0.450149059295654	2	1	13.878545999527	200
7	1	0	0	0	2	0.462923049926758	2	1	16.5942840576172	300
8	1	0	0	0	2	0.39827299118042	2	1	19.4101331233978	500
9	1	0	0	0	1	0.366458892822266	1	1	22.4258460998535	100
10	1	0	0	0	1	0.500878095626831	1	1	25.0415101051331	500
11	1	0	0	0	2	0.38201117515564	2	1	28.0573341846466	500
12	1	0	0	0	1	0.375046014785767	1	1	31.0730011463165	300
13	1	1	0	0	1	0.527676105499268	1	1	33.8886940479279	400
14	1	0	0	0	1	0.426848888397217	1	1	36.8044650554657	300
15	1	1	0	0	1	0.452678918838501	1	1	39.6201939582825	500
16	1	0	0	0	1	0.46039891242981	1	1	42.6359469890594	100
17	1	0	0	0	2	0.324549913406372	2	1	45.251650094986	400
18	1	0	1	0	2	0.440071105957031	2	1	48.1675381660461	300
19	1	0	0	0	2	0.440858125686646	2	1	50.9831969738007	200
20	1	0	0	0	2	0.364952087402344	2	1	53.6989669799805	100
21	1	0	0	0	1	0.364722967147827	1	1	56.314759016037	500
22	1	0	0	0	2	0.348559141159058	2	1	59.3305840492249	200
23	1	1	0	0	2	0.456815958023071	2	1	62.0462679862976	200
24	1	0	0	0	2	0.445003986358643	2	1	64.7621040344238	200
25	1	0	0	0	2	0.41763710975647	2	1	67.4777929782867	100
26	1	0	0	0	1	0.337005138397217	1	1	70.0936510562897	500
27	1	0	0	0	1	0.366342067718506	1	1	73.1094830036163	100
28	1	0	0	0	2	0.426108121871948	2	1	75.7251679897308	400
29	1	0	1	0	1	0.38239598274231	1	1	78.6410090923309	300
30	1	0	0	0	2	0.318156003952026	2	1	81.4570651054382	300
31	1	0	0	0	2	0.412624835968018	2	1	84.2736101150513	100
32	1	0	1	0	1	0.367147922515869	1	1	86.8902461528778	100
33	1	0	0	0	2	0.350558042526245	2	1	89.5067241191864	200
34	1	0	0	0	1	0.371100902557373	1	1	92.2232179641724	500
35	1	0	0	0	1	0.467235088348389	1	1	95.2397420406342	100
36	1	0	1	0	2	0.362879037857056	2	1	97.8562409877777	300
37	1	0	0	0	1	0.436007976531982	1	1	100.67272901535	400
38	1	0	0	0	2	0.375349998474121	2	1	103.589248180389	100
39	1	0	0	0	2	0.439929008483887	2	1	106.205713033676	500
40	1	0	0	0	1	0.405232906341553	1	1	109.222215175629	300
41	1	0	0	0	1	0.480515003204346	1	1	112.038642168045	500
42	1	0	0	0	2	0.360142946243286	2	1	115.055149078369	400
43	1	0	0	0	1	0.405550003051758	1	1	117.971569061279	400
44	1	1	0	0	1	0.448410034179688	1	1	120.888040065765	200
45	1	0	0	0	1	0.420736074447632	1	1	123.604468107224	100
46	1	0	0	0	2	0.405779123306274	2	1	126.220911979675	500
47	1	0	0	0	2	0.446150064468384	2	1	129.237356185913	200
48	1	1	0	0	2	0.473898887634277	2	1	131.953745126724	200
49	1	0	0	0	1	0.373610973358154	1	1	134.670185089111	100
50	1	0	0	0	1	0.429916858673096	1	1	137.286612033844	400
51	1	0	0	0	1	0.43415093421936	1	1	140.20304608345	300
52	1	0	0	0	1	0.362531900405884	1	1	143.019435167313	200
53	1	0	0	0	2	0.365915060043335	2	1	145.735830068588	400
54	1	0	0	0	2	0.418463945388794	2	1	148.652230978012	500
55	1	0	1	0	2	0.442652940750122	2	1	151.668609142303	400
56	1	0	0	0	2	0.431121110916138	2	1	154.584954977036	400
57	1	0	0	0	2	0.399441003799438	2	1	157.501320123672	500
58	1	0	0	0	1	0.355571985244751	1	1	160.517673969269	300
59	1	0	0	0	1	0.356453895568848	1	1	163.33408498764	400
60	1	0	0	0	2	0.406786918640137	2	1	166.25036406517	200
61	2	0	0	0	2	0.392212152481079	2	1	179.148967981339	100
62	2	0	0	0	2	0.375996112823486	2	1	181.765156984329	100
63	2	0	0	0	2	0.38396692276001	2	1	184.381492137909	500
64	2	0	0	0	1	0.344068050384521	1	1	187.397842168808	100
65	2	1	0	0	1	0.376057863235474	1	1	190.014147043228	300
66	2	0	0	0	1	0.424239158630371	1	1	192.830450057983	300
67	2	1	0	0	2	0.400429010391235	2	1	195.646753072739	200
68	2	0	0	0	1	0.333816051483154	1	1	198.363034009933	300
69	2	0	0	0	2	0.363032817840576	2	1	201.179342031479	100
70	2	0	0	0	2	0.356764078140259	2	1	203.7956199646	500
71	2	1	0	0	2	0.438739776611328	2	1	206.811928033829	300
72	2	0	0	0	2	0.429267883300781	2	1	209.628201007843	200
73	2	0	0	0	2	0.417578935623169	2	1	212.344438076019	200
74	2	0	0	0	1	0.389765024185181	1	1	215.060727119446	500
75	2	0	0	0	2	0.413975954055786	2	1	218.076996088028	400
76	2	0	0	0	2	0.431520938873291	2	1	220.993227005005	200
77	2	1	0	0	1	0.326553821563721	1	1	223.709452152252	300
78	2	0	0	0	1	0.454320907592773	1	1	226.525796175003	400
79	2	0	0	0	2	0.354628086090088	2	1	229.441964149475	200
80	2	0	0	0	1	0.366509199142456	1	1	232.158174037933	400
81	2	0	0	0	2	0.371484041213989	2	1	235.074429988861	300
82	2	1	0	0	2	0.426968812942505	2	1	237.890637159348	200
83	2	0	0	0	1	0.388410091400146	1	1	240.606871128082	300
84	2	0	1	0	2	0.42547607421875	2	1	243.423107147217	100
85	2	0	0	0	1	0.359450101852417	1	1	246.039314985275	500
86	2	0	1	0	1	0.432497024536133	1	1	249.055564165115	300
87	2	0	0	0	1	0.414044141769409	1	1	251.871714115143	400
88	2	0	0	0	1	0.37702202796936	1	1	254.78794002533	100
89	2	0	0	0	2	0.404292821884155	2	1	257.404127120972	400
90	2	0	0	0	1	0.385581016540527	1	1	260.320358991623	500
91	2	0	0	0	2	0.368429899215698	2	1	263.336541175842	400
92	2	0	0	0	2	0.425879001617432	2	1	266.252680063248	200
93	2	0	0	0	1	0.36572003364563	1	1	268.968832015991	400
94	2	0	0	0	1	0.365578889846802	1	1	271.885065078735	500
95	2	0	0	0	2	0.48638391494751	2	1	274.901214122772	100
96	2	0	1	0	2	0.434860944747925	2	1	277.517359972	500
97	2	0	0	0	2	0.467010974884033	2	1	280.53356218338	500
98	2	0	0	0	1	0.422240018844604	1	1	283.549697160721	400
99	2	0	0	0	1	0.379263877868652	1	1	286.465814113617	400
100	2	0	0	0	1	0.483788967132568	1	1	289.38196015358	200
101	2	0	0	0	2	0.448230028152466	2	1	292.098122119904	100
102	2	0	0	0	1	0.435471057891846	1	1	294.714262962341	300
103	2	0	0	0	1	0.499926805496216	1	1	297.53045296669	200
104	2	1	0	0	1	0.383926868438721	1	1	300.246596097946	100
105	2	0	0	0	1	0.358254194259644	1	1	302.86276102066	400
106	2	0	0	0	2	0.415903091430664	2	1	305.778923988342	200
107	2	0	0	0	2	0.44768214225769	2	1	308.495048046112	500
108	2	0	0	0	1	0.423887014389038	1	1	311.511216163635	100
109	2	0	1	0	1	0.407981157302856	1	1	314.127295017242	100
110	2	0	0	0	1	0.402110815048218	1	1	316.74347114563	300
111	2	0	0	0	1	0.368235111236572	1	1	319.559661149979	400
112	2	0	1	0	1	0.388472080230713	1	1	322.475756168365	400
113	2	0	0	0	2	0.333256006240845	2	1	325.39186000824	500
114	2	0	0	0	2	0.416929006576538	2	1	328.407947063446	100
115	2	0	0	0	2	0.441372871398926	2	1	331.024037122726	500
116	2	0	0	0	2	0.457818984985352	2	1	334.040163040161	300
117	2	0	1	0	2	0.505386829376221	2	1	336.856224060059	300
118	2	0	0	0	2	0.48238205909729	2	1	339.672335147858	200
119	2	0	0	0	1	0.422063827514648	1	1	342.388440132141	500
120	2	0	0	0	1	0.394085884094238	1	1	345.40455698967	200
121	3	0	0	0	1	0.448960065841675	1	1	358.436892986298	100
122	3	0	0	0	2	0.437891006469727	2	1	361.051262140274	300
123	3	0	0	0	1	0.321871042251587	1	1	363.867383003235	100
124	3	0	1	0	1	0.400851964950562	1	1	366.483453035355	400
125	3	0	0	0	2	0.360179901123047	2	1	369.399574995041	100
126	3	0	0	0	2	0.447664022445679	2	1	372.015637159348	400
127	3	0	0	0	2	0.457437992095947	2	1	374.931746006012	400
128	3	0	0	0	1	0.333539009094238	1	1	377.847783088684	100
129	3	0	0	0	2	0.36871600151062	2	1	380.463824987411	300
130	3	1	0	0	2	0.390095949172974	2	1	383.279946088791	400
131	3	0	0	0	1	0.378185033798218	1	1	386.196005105972	100
132	3	0	0	0	2	0.418420791625977	2	1	388.812026023865	500
133	3	0	0	0	2	0.474628925323486	2	1	391.828145980835	500
134	3	0	0	0	2	0.410891056060791	2	1	394.844150066376	300
135	3	0	0	0	1	0.315842866897583	1	1	397.660159111023	300
136	3	0	0	0	2	0.443194150924683	2	1	400.476170063019	100
137	3	0	0	0	1	0.39543604850769	1	1	403.092251062393	400
138	3	0	0	0	1	0.399657964706421	1	1	406.008345127106	200
139	3	0	0	0	1	0.347681999206543	1	1	408.724359035492	300
140	3	0	0	0	1	0.371888160705566	1	1	411.540413141251	400
141	3	0	0	0	1	0.312198162078857	1	1	414.456398010254	200
142	3	1	0	0	2	0.548152923583984	2	1	417.172470092773	200
143	3	0	0	0	1	0.472491979598999	1	1	419.888535022736	500
144	3	0	0	0	2	0.416781902313232	2	1	422.904579162598	400
145	3	1	0	0	2	0.453462839126587	2	1	425.820607185364	400
146	3	0	0	0	1	0.400635957717896	1	1	428.736567974091	500
147	3	0	0	0	2	0.393270015716553	2	1	431.752570152283	200
148	3	0	1	0	1	0.405555963516235	1	1	434.468549013138	300
149	3	0	0	0	2	0.43511700630188	2	1	437.284595966339	100
150	3	0	0	0	1	0.407716035842896	1	1	439.90062212944	500
151	3	1	0	0	1	0.477937936782837	1	1	442.916661024094	200
152	3	0	0	0	2	0.474027872085571	2	1	445.632625102997	400
153	3	0	1	0	2	0.470380067825317	2	1	448.548698186874	300
154	3	0	0	0	2	0.430480003356934	2	1	451.364701986313	400
155	3	0	0	0	2	0.434952020645142	2	1	454.280692100525	500
156	3	0	1	0	2	0.48003101348877	2	1	457.296672105789	300
157	3	0	0	0	2	0.477513074874878	2	1	460.112637042999	100
158	3	0	0	0	1	0.379702091217041	1	1	462.72864317894	200
159	3	0	1	0	2	0.41611385345459	2	1	465.444693088531	500
160	3	0	0	0	2	0.463719844818115	2	1	468.460716962814	100
161	3	0	0	0	2	0.455805063247681	2	1	471.076681137085	300
162	3	0	0	0	2	0.512473106384277	2	1	473.892709970474	200
163	3	0	0	0	1	0.460213899612427	1	1	476.608716964722	100
164	3	1	0	0	1	0.540539026260376	1	1	479.224737167358	400
165	3	0	0	0	2	0.504951953887939	2	1	482.140769004822	100
166	3	0	0	0	1	0.368628978729248	1	1	484.756787061691	200
167	3	0	0	0	1	0.419831037521362	1	1	487.47277712822	200
168	3	0	0	0	2	0.407089948654175	2	1	490.18878698349	100
169	3	0	0	0	1	0.497596025466919	1	1	492.804865121841	200
170	3	0	0	0	1	0.413295984268188	1	1	495.520840167999	400
171	3	0	1	0	1	0.409313917160034	1	1	498.436848163605	500
172	3	0	0	0	1	0.518527030944824	1	1	501.452891111374	500
173	3	0	0	0	2	0.35429310798645	2	1	504.468726158142	200
174	3	1	0	0	1	0.413909196853638	1	1	507.184677124023	500
175	3	0	0	0	1	0.438388109207153	1	1	510.200668096542	200
176	3	0	0	0	2	0.456127166748047	2	1	512.916608095169	500
177	3	0	0	0	1	0.42800498008728	1	1	515.932610988617	300
178	3	0	0	0	1	0.4668128490448	1	1	518.748528003693	300
179	3	0	0	0	1	0.419100999832153	1	1	521.564493179321	300
180	3	0	0	0	2	0.45954704284668	2	1	524.380472183228	500
181	4	0	0	0	1	0.398709058761597	1	1	535.594931125641	100
182	4	0	0	0	2	0.413840055465698	2	1	538.210329055786	100
183	4	0	1	0	2	0.398478984832764	2	1	540.826330184937	100
184	4	0	0	0	1	0.358306884765625	1	1	543.44234418869	100
185	4	0	0	0	1	0.374542951583862	1	1	546.058361053467	200
186	4	0	0	0	1	0.330711841583252	1	1	548.774366140366	300
187	4	0	0	0	2	0.418529987335205	2	1	551.590353965759	400
188	4	0	0	0	2	0.455142974853516	2	1	554.506312131882	200
189	4	1	0	0	2	0.441627025604248	2	1	557.222249984741	500
190	4	0	0	0	1	0.340933799743652	1	1	560.238231182098	500
191	4	0	0	0	2	0.427976846694946	2	1	563.254148006439	300
192	4	0	0	0	2	0.396022081375122	2	1	566.070063114166	100
193	4	0	0	0	1	0.32398509979248	1	1	568.685999155045	500
194	4	0	0	0	2	0.428179979324341	2	1	571.702049970627	300
195	4	0	1	0	2	0.452540159225464	2	1	574.517929077148	300
196	4	0	0	0	1	0.432495832443237	1	1	577.333825111389	300
197	4	0	0	0	2	0.396584033966064	2	1	580.14976811409	400
198	4	0	0	0	1	0.449628114700317	1	1	583.065729141235	200
199	4	0	0	0	1	0.4529709815979	1	1	585.781635046005	100
200	4	0	0	0	1	0.404979944229126	1	1	588.397614955902	100
201	4	0	0	0	2	0.485204935073853	2	1	591.013607025146	200
202	4	0	0	0	2	0.466193914413452	2	1	593.72959113121	500
203	4	0	0	0	2	0.489800930023193	2	1	596.745571136475	300
204	4	0	0	0	1	0.505960941314697	1	1	599.561455011368	200
205	4	0	0	0	2	0.50977897644043	2	1	602.277397155762	400
206	4	0	0	0	1	0.394145011901855	1	1	605.193345069885	500
207	4	1	0	0	1	0.482367992401123	1	1	608.20938706398	500
208	4	0	0	0	2	0.434448003768921	2	1	611.225155115128	500
209	4	0	0	0	1	0.386970043182373	1	1	614.241041183472	500
210	4	0	0	0	2	0.436638116836548	2	1	617.25691318512	400
211	4	0	0	0	2	0.431457996368408	2	1	620.172804117203	400
212	4	0	0	0	2	0.363358020782471	2	1	623.088699102402	100
213	4	0	0	0	1	0.355923891067505	1	1	625.704612016678	100
214	4	1	0	0	1	0.451774835586548	1	1	628.320620059967	200
215	4	0	0	0	2	0.456311941146851	2	1	631.036565065384	300
216	4	1	0	0	1	0.472393035888672	1	1	633.852516174316	500
217	4	0	0	0	2	0.489228963851929	2	1	636.868456125259	400
218	4	1	0	0	2	0.436457872390747	2	1	639.784327983856	500
219	4	0	0	0	1	0.342360019683838	1	1	642.800218105316	400
220	4	0	0	0	2	0.377400159835815	2	1	645.716091156006	200
221	4	0	1	0	1	0.389217138290405	1	1	648.431995153427	500
222	4	0	0	0	1	0.453126192092896	1	1	651.448008060455	400
223	4	0	0	0	1	0.433809995651245	1	1	654.363819122314	400
224	4	0	0	0	1	0.466513872146606	1	1	657.279703140259	100
225	4	0	1	0	1	0.446097135543823	1	1	659.89560508728	300
226	4	0	0	0	1	0.366099119186401	1	1	662.711569070816	200
227	4	0	0	0	1	0.498368978500366	1	1	665.427497148514	400
228	4	0	0	0	1	0.4545578956604	1	1	668.343428134918	200
229	4	0	0	0	2	0.370748996734619	2	1	671.059324979782	400
230	4	0	0	0	1	0.447195053100586	1	1	673.97527217865	500
231	4	0	1	0	1	0.399096012115479	1	1	676.991158008575	300
232	4	0	0	0	2	0.351438045501709	2	1	679.807021141052	300
233	4	0	0	0	2	0.327607154846191	2	1	682.622963190079	200
234	4	0	1	0	2	0.396023035049438	2	1	685.33886218071	200
235	4	0	0	0	1	0.456238031387329	1	1	688.054793119431	100
236	4	0	0	0	1	0.3924880027771	1	1	690.670727014542	300
237	4	0	0	0	2	0.473177909851074	2	1	693.486684083939	200
238	4	0	0	0	2	0.404408931732178	2	1	696.202609062195	100
239	4	1	0	0	2	0.457298994064331	2	1	698.818464040756	400
240	4	0	0	0	2	0.000509977340698242	2	1	701.734508037567	300
