TrialNum	Block	Odd: Visual	Odd: Audio	Odd: Haptic	CueDirection	RT	RespDirection	Acc	TrialTime	ITI
1	1	0	0	0	2	0.437125143478625	2	1	0.000213974621146917	100
2	1	0	0	0	1	0.42735962360166	1	1	2.61391951469705	400
3	1	0	0	0	2	0.39672596368473	2	1	5.52926640387159	400
4	1	1	0	0	1	0.567557275993749	1	1	8.44487378385384	500
5	1	0	0	0	2	0.38727194222156	2	1	11.4610229334794	100
6	1	0	0	0	2	0.39365428884048	2	1	14.0763238195796	200
7	1	0	0	0	1	0.38848778011743	1	1	16.792321422603	400
8	1	0	0	0	2	0.372997877537273	2	1	19.7075018157484	100
9	1	0	0	0	1	0.449218078283593	1	1	22.3237173070665	500
10	1	0	0	0	1	0.460602362640202	1	1	25.3387041926617	200
11	1	0	1	0	1	0.461555143236183	1	1	28.0547784672817	200
12	1	0	0	0	2	0.378536837059073	2	1	30.7701222767355	500
13	1	0	0	0	2	0.414274770417251	2	1	33.7864122581668	400
14	1	1	0	0	1	0.397696067462675	1	1	36.7014146064175	500
15	1	0	0	0	1	0.548907799064182	1	1	39.7176208586898	300
16	1	0	0	0	1	0.455675492528826	1	1	42.5329620375996	200
17	1	0	1	0	2	0.374440201325342	2	1	45.2482702380512	200
18	1	0	0	0	2	0.381072452408262	2	1	47.9645645824494	300
19	1	0	0	0	1	0.45415296847932	1	1	50.7796770298155	400
20	1	0	0	0	2	0.389307427918538	2	1	53.6953251515515	400
21	1	0	0	0	1	0.388371649780311	1	1	56.6109581956407	100
22	1	0	0	0	2	0.379795983084477	2	1	59.2265760337468	500
23	1	0	0	0	1	0.415033145225607	1	1	62.2423007629113	300
24	1	0	0	0	2	0.356269360287115	2	1	65.0578857510118	300
25	1	0	0	0	1	0.459863556665368	1	1	67.8740315000759	200
26	1	1	0	0	1	0.443397455150262	1	1	70.5898279604735	500
27	1	0	0	0	1	0.378281158162281	1	1	73.6049065954285	500
28	1	0	1	0	2	0.344362490344793	2	1	76.6209229332162	300
29	1	0	0	0	2	0.349040097557008	2	1	79.4359692954458	100
30	1	0	0	0	2	0.365144655806944	2	1	82.0517209077952	200
31	1	0	0	0	2	0.359449466108344	2	1	84.768044124241	100
32	1	0	0	0	2	0.329384907963686	2	1	87.3834434965393	500
33	1	1	0	0	2	0.472340491134673	2	1	90.3988451785408	100
34	1	0	0	0	1	0.407547241309658	1	1	93.0150523291668	100
35	1	0	0	0	1	0.387967119109817	1	1	95.6300805340288	200
36	1	0	1	0	1	0.443980030831881	1	1	98.345930889016	400
37	1	0	0	0	2	0.362461150973104	2	1	101.262254298083	200
38	1	0	1	0	1	0.382880489807576	1	1	103.977261265856	100
39	1	0	0	0	1	0.390819365624338	1	1	106.59323455207	300
40	1	0	0	0	1	0.410442795953713	1	1	109.408969996031	200
41	1	0	1	0	2	0.321984337177128	2	1	112.124695880106	400
42	1	0	0	0	2	0.379690760164522	2	1	115.039894879679	400
43	1	0	0	0	1	0.413608786300756	1	1	117.956059812801	300
44	1	0	0	0	2	0.327327286824584	2	1	120.771869361866	500
45	1	0	0	0	2	0.36766775988508	2	1	123.787277139141	400
46	1	0	0	0	2	0.358183262404054	2	1	126.703100418556	300
47	1	0	0	0	1	0.416928761522286	1	1	129.518163462519	400
48	1	0	0	0	1	0.372427171678282	1	1	132.433810301009	400
49	1	0	0	0	2	0.384077079594135	2	1	135.349753239425	300
50	1	0	0	0	1	0.366581846727058	1	1	138.165617645602	500
51	1	1	0	0	2	0.36060627643019	2	1	141.181294254493	500
52	1	0	0	0	1	0.396283578244038	1	1	144.196286593797	500
53	1	0	0	0	2	0.344211071962491	2	1	147.211870491155	300
54	1	0	0	0	2	0.352436744375154	2	1	150.027466707164	300
55	1	0	0	0	1	0.440115013741888	1	1	152.843462641933	200
56	1	0	0	0	1	0.561174929258414	1	1	155.558762501576	300
57	1	0	0	0	1	0.358614098862745	1	1	158.374845694401	100
58	1	0	0	0	2	0.362677050288767	2	1	160.990132144536	100
59	1	1	0	0	2	0.353846025420353	2	1	163.60586162156	100
60	1	0	0	0	1	0.396762214135379	1	1	166.222163408529	200
61	2	0	0	0	1	0.410928810248151	1	1	179.884570151567	400
62	2	0	0	0	2	0.417075046920218	2	1	182.798946295166	100
63	2	0	0	0	1	0.382191408192739	1	1	185.41505463887	200
64	2	0	0	0	2	0.355335186235607	2	1	188.130440152483	500
65	2	0	0	0	2	0.332139630801976	2	1	191.14675098611	100
66	2	0	1	0	2	0.364289398887195	2	1	193.762332573649	400
67	2	0	0	0	1	0.399978249683045	1	1	196.678001226741	500
68	2	0	0	0	2	0.376114464481361	2	1	199.693562667933	100
69	2	0	0	0	2	0.329422120936215	2	1	202.30854628142	500
70	2	1	0	0	2	0.351477868622169	2	1	205.324968433124	500
71	2	0	0	0	1	0.421974969794974	1	1	208.340286385966	300
72	2	0	0	0	2	0.367365244193934	2	1	211.156152716954	500
73	2	0	0	0	1	0.378345960169099	1	1	214.171677265898	400
74	2	1	0	0	2	0.369543486507609	2	1	217.087335974094	400
75	2	0	0	0	2	0.340063108014874	2	1	220.002328056726	300
76	2	0	0	0	1	0.427600866416469	1	1	222.818041686201	200
77	2	0	0	0	1	0.438875115825795	1	1	225.533725866117	500
78	2	0	0	0	1	0.433170622796752	1	1	228.549409853411	200
79	2	0	1	0	1	0.410119107109495	1	1	231.265421250835	100
80	2	0	0	0	2	0.380892161861993	2	1	233.881233815569	300
81	2	0	0	0	1	0.359050709754229	1	1	236.696415235172	400
82	2	0	0	0	1	0.334237993694842	1	1	239.61207650986	100
83	2	1	0	0	1	0.445600078557618	1	1	242.227689535939	200
84	2	0	0	0	1	0.340643758885562	1	1	244.943969123415	500
85	2	0	0	0	2	0.366741605917923	2	1	247.959126033937	300
86	2	0	0	0	1	0.37681252870243	1	1	250.774717437918	100
87	2	0	0	0	1	0.340953653212637	1	1	253.390628488734	200
88	2	0	0	0	1	0.38239992922172	1	1	256.106614863616	500
89	2	0	1	0	2	0.393289216794074	2	1	259.121806420619	200
90	2	0	0	0	1	0.420887773274444	1	1	261.83772767277	100
91	2	0	1	0	2	0.393065618001856	2	1	264.453640006715	300
92	2	0	0	0	2	0.35137906158343	2	1	267.26879062946	100
93	2	1	0	0	2	0.389624059083872	2	1	269.884970832733	300
94	2	0	0	0	2	0.336447995505296	2	1	272.70080668747	100
95	2	0	1	0	1	0.344337146962062	1	1	275.316094741691	400
96	2	0	0	0	1	0.439266493660398	1	1	278.231934061158	200
97	2	1	0	0	1	0.379159192088991	1	1	280.947602521745	300
98	2	0	0	0	1	0.409760771784931	1	1	283.763225685107	300
99	2	0	0	0	2	0.43463893153239	2	1	286.579061860801	300
100	2	0	0	0	2	0.353363860864192	2	1	289.394060744438	300
101	2	0	0	0	2	0.328487946768291	2	1	292.210292147473	200
102	2	0	0	0	2	0.328960487502627	2	1	294.926100798417	300
103	2	0	0	0	2	0.359957615612075	2	1	297.741060544155	100
104	2	0	0	0	1	0.371707292972133	1	1	300.357315814937	200
105	2	0	0	0	2	0.320400860742666	2	1	303.073060947121	500
106	2	0	0	0	2	0.34784190391656	2	1	306.08866762137	400
107	2	0	0	0	2	0.329343524645083	2	1	309.004445346887	400
108	2	0	0	0	2	0.421722178230993	2	1	311.920117208036	500
109	2	0	0	0	1	0.477274097967893	1	1	314.935137777822	400
110	2	0	0	0	1	0.392552014673129	1	1	317.850728155347	400
111	2	0	0	0	1	0.402335820253938	1	1	320.766322703217	300
112	2	0	0	0	1	0.29704811249394	1	1	323.582332432503	500
113	2	0	0	0	2	0.304547169362195	2	1	326.598101432319	500
114	2	0	0	0	1	0.402062176493928	1	1	329.613809159026	100
115	2	1	0	0	1	0.39808423735667	1	1	332.229377914453	200
116	2	0	0	0	2	0.392219022847712	2	1	334.944539508549	400
117	2	0	0	0	2	0.356178252724931	2	1	337.860220993753	200
118	2	0	0	0	1	0.405822932953015	1	1	340.576405944768	200
119	2	0	0	0	2	0.332760060904548	2	1	343.291545724496	400
120	2	0	1	0	1	0.365217477781698	1	1	346.207587469718	100
121	3	0	0	0	2	0.400484795216471	2	1	364.136321086437	200
122	3	0	0	0	2	0.325659439666197	2	1	366.849747464992	200
123	3	1	0	0	1	0.41211320948787	1	1	369.565437098499	500
124	3	0	0	0	2	0.379371883347631	2	1	372.581712002284	400
125	3	1	0	0	2	0.390461030299775	2	1	375.497237898642	500
126	3	0	0	0	1	0.368137734243646	1	1	378.512751861243	400
127	3	0	0	0	2	0.332764872931875	2	1	381.428416664712	100
128	3	0	0	0	1	0.34654361999128	1	1	384.044095134363	400
129	3	0	0	0	2	0.345049968105741	2	1	386.959864519071	300
130	3	0	0	0	2	0.384295545401983	2	1	389.775486399303	400
131	3	0	0	0	2	0.355277762864716	2	1	392.690561248688	500
132	3	0	0	0	1	0.395455910242163	1	1	395.706733496045	300
133	3	0	0	0	2	0.302512645954266	2	1	398.521646725596	300
134	3	0	1	0	1	0.337282079504803	1	1	401.337740504881	400
135	3	0	0	0	1	0.448752274503931	1	1	404.25346818543	200
136	3	1	0	0	2	0.454486922943033	2	1	406.969301217236	500
137	3	0	0	0	1	0.405522983404808	1	1	409.984819671023	500
138	3	0	0	0	1	0.333477052510716	1	1	413.000607918948	500
139	3	1	0	0	1	5.96690224483609e-05	2	2	416.015946082189	500
140	3	0	0	0	2	0.393192334682681	2	1	419.03139877168	300
141	3	0	0	0	1	0.479097854695283	1	1	421.846758877859	200
142	3	0	0	0	2	0.39646547276061	2	1	424.562410335988	100
143	3	0	0	0	2	0.434515422908589	2	1	427.178694158094	100
144	3	0	1	0	2	0.36871164815966	2	1	429.794142292114	100
145	3	0	0	0	2	0.363331164699048	2	1	432.40959010541	400
146	3	0	0	0	1	0.538812816143036	1	1	435.325145194773	300
147	3	1	0	0	2	0.433019846095704	2	1	438.141239294782	200
148	3	0	0	0	1	0.336537819937803	1	1	440.85658182099	200
149	3	0	0	0	1	0.40152675868012	1	1	443.572701970232	500
150	3	0	0	0	2	0.421534188441001	2	1	446.588427020237	400
151	3	0	0	0	1	0.392024937900715	1	1	449.503963823779	300
152	3	0	0	0	2	0.374642306240276	2	1	452.319600140094	500
153	3	0	1	0	1	0.430229835095815	1	1	455.335251405719	200
154	3	0	0	0	2	0.341551306424662	2	1	458.050769089605	200
155	3	0	0	0	1	0.293605270329863	1	1	460.766125731054	400
156	3	0	0	0	1	0.433835002826527	1	1	463.681808820227	400
157	3	0	0	0	2	0.383317421539687	2	1	466.597953863558	100
158	3	0	0	0	2	0.333489242824726	2	1	469.213052324019	100
159	3	0	1	0	2	0.37573816429358	2	1	471.828777951421	500
160	3	0	0	0	2	0.376067306729965	2	1	474.844937687507	300
161	3	0	0	0	1	0.45280592283234	1	1	477.660093763843	100
162	3	1	0	0	1	0.405740486923605	1	1	480.275735020405	200
163	3	0	0	0	1	0.400623381603509	1	1	482.991863510455	200
164	3	0	0	0	1	0.350684847217053	1	1	485.70774017123	300
165	3	0	0	0	1	0.337395643233322	1	1	488.523161871242	100
166	3	0	1	0	1	0.52983197697904	1	1	491.139002666459	400
167	3	0	0	0	2	0.385486360755749	2	1	494.054280904122	300
168	3	0	0	0	2	0.333162346039899	2	1	496.869892518618	400
169	3	0	0	0	2	0.318927740096115	2	1	499.78615369217	500
170	3	0	0	0	1	0.451495127752423	1	1	502.801640707417	200
171	3	0	0	0	1	0.353069685865194	1	1	505.517315584002	300
172	3	0	0	0	2	0.504938418976963	2	1	508.332432522555	100
173	3	0	0	0	1	0.38304185308516	1	1	510.948542470229	100
174	3	0	0	0	1	0.363101150025614	1	1	513.563706053421	500
175	3	0	0	0	1	0.360385564970784	1	1	516.579551724717	100
176	3	0	1	0	2	0.365623612538911	2	1	519.195043487824	200
177	3	0	0	0	1	0.43710525368806	1	1	521.91132500011	300
178	3	0	0	0	2	0.460745760938153	2	1	524.726586299483	100
179	3	0	0	0	2	0.410034736385569	2	1	527.342595194583	300
180	3	0	0	0	1	0.345728142536245	1	1	530.158289575949	400
181	4	0	0	0	2	0.377829469623975	2	1	543.038819232141	300
182	4	1	0	0	1	0.404084830195643	1	1	545.852714558481	500
183	4	0	0	0	2	0.384499575244263	2	1	548.868423889158	500
184	4	0	0	0	2	0.393082299618982	2	1	551.884139956674	200
185	4	0	0	0	1	0.327162074157968	1	1	554.599575836211	300
186	4	0	0	0	2	0.398000508197583	2	1	557.414712022874	200
187	4	0	0	0	2	0.371041308972053	2	1	560.130809074268	400
188	4	0	0	0	1	0.389014215325005	1	1	563.046776393545	100
189	4	0	0	0	2	0.358511442318559	2	1	565.662414442166	100
190	4	0	0	0	2	0.340495227719657	2	1	568.27813525754	300
191	4	0	0	0	1	0.343220757669769	1	1	571.093871984747	500
192	4	1	0	0	2	0.439368829480372	2	1	574.108955752454	200
193	4	0	0	0	1	0.363920797943138	1	1	576.824539200636	200
194	4	0	1	0	1	0.361013052752241	1	1	579.540234287735	100
195	4	0	0	0	2	0.377452848595567	2	1	582.156205328298	100
196	4	0	0	0	1	0.364557588938624	1	1	584.771656670491	500
197	4	1	0	0	1	0.393465336761437	1	1	587.78729606641	100
198	4	0	0	0	2	0.31320047006011	2	1	590.403556470061	400
199	4	0	0	0	2	0.409161193761975	2	1	593.319042587071	400
200	4	0	0	0	1	0.475097138783894	1	1	596.234603771591	100
201	4	0	0	0	2	0.357358481618576	2	1	598.849947324372	200
202	4	0	1	0	1	0.414976684143767	1	1	601.566143824253	100
203	4	0	0	0	1	0.382097092457116	2	2	604.181983977905	500
204	4	0	0	0	2	0.359036594512872	2	1	607.196959635476	400
205	4	0	0	0	2	0.388915729243308	2	1	610.113043084857	500
206	4	0	0	0	1	0.390606994973496	1	1	613.128776475671	200
207	4	0	1	0	1	0.331368103041314	1	1	615.844443973852	500
208	4	0	0	0	1	0.362915085162967	1	1	618.859578749049	200
209	4	1	0	0	2	0.43405186466407	2	1	621.575184011715	400
210	4	0	0	0	2	0.387953645433299	2	1	624.490885386593	500
211	4	0	1	0	2	0.365651201456785	2	1	627.506886646617	400
212	4	0	0	0	1	0.446292689070106	1	1	630.422426658333	500
213	4	0	0	0	1	0.386197577929124	1	1	633.437551488634	400
214	4	0	0	0	2	0.435286308871582	2	1	636.35326248745	300
215	4	0	0	0	1	0.478837684728205	1	1	639.169340547523	300
216	4	1	0	0	1	0.435230810195208	1	1	641.985142718186	400
217	4	0	0	0	1	0.383810172788799	1	1	644.900231362088	500
218	4	0	0	0	1	0.358420655480586	1	1	647.915828412166	300
219	4	0	0	0	1	0.350395484128967	1	1	650.731439705938	200
220	4	0	0	0	2	0.381143028731458	2	1	653.447530662175	300
221	4	0	0	0	1	0.375511036836542	1	1	656.263318717596	300
222	4	0	0	0	2	0.528906464576721	2	1	659.079012457281	300
223	4	0	0	0	2	0.378049218677916	2	1	661.894085125299	500
224	4	0	0	0	1	0.48098192224279	1	1	664.909742486198	200
225	4	0	0	0	2	0.332241004100069	2	1	667.625315347919	100
226	4	0	0	0	2	0.381902686785907	2	1	670.241035842453	400
227	4	0	0	0	2	0.288139774580486	2	1	673.156774430303	100
228	4	0	0	0	1	0.415845735464245	1	1	675.772356980247	300
229	4	0	0	0	2	0.361773994052783	2	1	678.587980785291	100
230	4	1	0	0	2	0.33272220636718	2	1	681.204313369235	400
231	4	0	0	0	2	0.317256364040077	2	1	684.119491837453	200
232	4	0	0	0	1	0.374965032679029	1	1	686.834970383556	300
233	4	0	0	0	2	0.370076337945648	2	1	689.650807200815	400
234	4	0	0	0	1	0.346692151157185	1	1	692.566470721038	300
235	4	0	1	0	2	0.358610249240883	2	1	695.382306255051	400
236	4	0	0	0	1	0.38024189718999	1	1	698.298353453982	100
237	4	0	0	0	1	0.400905686896294	1	1	700.913823723327	500
238	4	0	1	0	2	0.324734568828717	2	1	703.929108312819	200
239	4	0	0	0	1	0.388827188056894	1	1	706.644662568113	100
240	4	0	0	0	1	0.4562397825066	1	1	709.260760004516	200
