TrialNum	Block	Odd: Visual	Odd: Audio	Odd: Haptic	CueDirection	RT	RespDirection	Acc	TrialTime	ITI
1	1	0	0	0	2	0.548779010772705	2	1	2.40802764892578e-05	400
2	1	0	0	0	1	0.670342922210693	1	1	2.91604804992676	100
3	1	0	0	0	2	0.551603078842163	2	1	5.5316379070282	300
4	1	0	0	0	2	0.558143138885498	2	1	8.34745001792908	300
5	1	0	0	0	1	0.590409994125366	1	1	11.1632928848267	100
6	1	0	0	0	2	0.545240163803101	2	1	13.7790749073029	100
7	1	0	1	0	1	0.633324146270752	1	1	16.3948609828949	200
8	1	0	0	0	2	0.498037099838257	2	1	19.1107530593872	200
9	1	0	0	0	2	0.579442024230957	2	1	21.8264439105988	500
10	1	1	0	0	1	0.654431104660034	1	1	24.8422610759735	200
11	1	0	0	0	2	0.495975971221924	2	1	27.5578799247742	300
12	1	1	0	0	1	0.577632904052734	1	1	30.3737659454346	400
13	1	0	0	0	1	0.600311040878296	1	1	33.2894699573517	500
14	1	0	0	0	2	0.51865291595459	2	1	36.3051760196686	100
15	1	0	0	0	2	0.570762872695923	2	1	38.9208900928497	400
16	1	0	1	0	2	0.566828966140747	2	1	41.8367140293121	400
17	1	0	0	0	1	0.611299991607666	1	1	44.7524449825287	100
18	1	0	1	0	2	0.479050159454346	2	1	47.3681581020355	100
19	1	0	0	0	2	0.515298843383789	2	1	49.9839689731598	100
20	1	1	0	0	2	0.603675842285156	2	1	52.5999701023102	500
21	1	0	0	0	1	0.551993131637573	1	1	55.6156311035156	200
22	1	0	0	0	2	0.534075021743774	2	1	58.3312940597534	400
23	1	0	0	0	1	0.581135988235474	1	1	61.247092962265	100
24	1	0	0	0	2	0.52534294128418	2	1	63.862802028656	200
25	1	0	0	0	1	0.465723991394043	1	1	66.5786290168762	500
26	1	0	0	0	2	0.521947860717773	2	1	69.5944318771362	300
27	1	0	0	0	2	0.568536996841431	2	1	72.4101099967957	500
28	1	0	0	0	1	0.581703901290894	1	1	75.4258320331573	300
29	1	0	0	0	2	0.547565937042236	2	1	78.2415969371796	300
30	1	0	0	0	1	0.517560958862305	1	1	81.0572710037231	100
31	1	0	0	0	1	0.599997043609619	1	1	83.6730110645294	300
32	1	0	0	0	2	0.555408000946045	2	1	86.4888429641724	500
33	1	0	0	0	1	0.515475988388062	1	1	89.5045969486237	300
34	1	0	0	0	1	0.566060066223145	1	1	92.3202719688416	200
35	1	0	0	0	1	0.556380987167358	1	1	95.0359559059143	300
36	1	0	1	0	2	0.456506967544556	2	1	97.8517949581146	300
37	1	0	0	0	1	0.520108938217163	1	1	100.667648077011	200
38	1	0	0	0	2	0.498070001602173	2	1	103.383292913437	100
39	1	1	0	0	1	0.612979173660278	1	1	105.999079942703	500
40	1	0	0	0	1	0.589717864990234	1	1	109.014918088913	500
41	1	1	0	0	2	0.549732208251953	2	1	112.030586004257	400
42	1	0	0	0	1	0.546812057495117	1	1	114.946285009384	200
43	1	0	0	0	2	0.550379991531372	2	1	117.661978006363	300
44	1	0	0	0	1	0.500231981277466	1	1	120.477827072144	300
45	1	0	0	0	2	0.523288011550903	2	1	123.29349899292	400
46	1	0	0	0	1	0.56325101852417	1	1	126.209282875061	100
47	1	0	1	0	1	0.620606899261475	1	1	128.824903011322	200
48	1	0	0	0	2	0.479575872421265	2	1	131.540803909302	500
49	1	0	0	0	1	0.601334095001221	1	1	134.556586027145	400
50	1	0	1	0	1	0.564220190048218	1	1	137.472265005112	400
51	1	0	0	0	1	0.576542139053345	1	1	140.388000965118	500
52	1	0	0	0	1	0.54121994972229	1	1	143.403706073761	200
53	1	0	0	0	1	0.541929960250854	1	1	146.119376897812	100
54	1	0	0	0	1	0.581175088882446	1	1	148.735157966614	200
55	1	0	0	0	2	0.633867025375366	2	1	151.450984954834	500
56	1	0	0	0	2	0.529713869094849	2	1	154.466768026352	400
57	1	1	0	0	2	0.55784010887146	2	1	157.382510900497	400
58	1	0	0	0	2	0.538256883621216	2	1	160.298183917999	200
59	1	0	0	0	1	0.591803789138794	1	1	163.013891935349	500
60	1	0	0	0	2	0.540482997894287	2	1	166.029696941376	400
61	2	0	0	0	1	0.577147960662842	1	1	194.00355386734	300
62	2	0	0	0	2	0.465627908706665	2	1	196.819634914398	400
63	2	0	0	0	2	0.476778984069824	2	1	199.735383033752	200
64	2	0	0	0	1	0.498305797576904	1	1	202.451096057892	400
65	2	1	0	0	1	0.606094837188721	1	1	205.366870880127	200
66	2	0	0	0	1	0.627408981323242	1	1	208.082535028458	300
67	2	0	0	0	1	0.546988010406494	1	1	210.898392915726	100
68	2	0	0	0	1	0.554826021194458	1	1	213.514122962952	100
69	2	1	0	0	2	0.563240051269531	2	1	216.129957914352	200
70	2	0	0	0	2	0.599230051040649	2	1	218.845817089081	200
71	2	0	0	0	2	0.520705938339233	2	1	221.56161904335	100
72	2	0	0	0	2	0.515095949172974	2	1	224.177332878113	400
73	2	0	0	0	1	0.545332908630371	1	1	227.093143939972	200
74	2	0	0	0	1	0.596184015274048	1	1	229.80887389183	400
75	2	0	0	0	1	0.543610095977783	1	1	232.724622011185	500
76	2	1	0	0	1	0.580296039581299	1	1	235.740328073502	400
77	2	0	0	0	1	0.565165996551514	1	1	238.656019926071	500
78	2	0	0	0	1	0.58967113494873	1	1	241.671818971634	400
79	2	0	0	0	2	0.536234855651855	2	1	244.587419033051	300
80	2	0	0	0	1	0.508667945861816	1	1	247.403110027313	300
81	2	0	0	0	2	0.504530906677246	2	1	250.218883991241	500
82	2	0	0	0	2	0.467051029205322	2	1	253.234638929367	500
83	2	0	0	0	2	0.490915060043335	2	1	256.250325918198	300
84	2	1	0	0	2	0.556770086288452	2	1	259.066030025482	200
85	2	0	0	0	1	0.460225105285645	1	1	261.78177690506	200
86	2	0	0	0	1	0.547723054885864	1	1	264.497619867325	400
87	2	0	0	0	2	0.4534010887146	2	1	267.413305044174	100
88	2	1	0	0	1	0.519883871078491	1	1	270.029052972794	100
89	2	0	0	0	2	0.476489067077637	2	1	272.644856929779	100
90	2	0	1	0	2	0.553209066390991	2	1	275.260658025742	200
91	2	0	0	0	2	0.492609977722168	2	1	277.976474046707	500
92	2	0	1	0	1	0.502061128616333	1	1	280.992274045944	300
93	2	0	0	0	2	0.503298997879028	2	1	283.8079829216	200
94	2	0	0	0	1	0.457777976989746	1	1	286.523720026016	200
95	2	0	0	0	2	0.445953130722046	2	1	289.239516973495	300
96	2	0	1	0	1	0.430384159088135	1	1	292.055298089981	400
97	2	0	0	0	2	0.410403966903687	2	1	294.971039056778	400
98	2	0	0	0	1	0.439123153686523	1	1	297.886760950089	100
99	2	0	0	0	2	0.494884014129639	2	1	300.502481937408	300
100	2	0	1	0	2	0.453443050384521	2	1	303.318270921707	500
101	2	0	0	0	2	0.552945137023926	2	1	306.334054946899	100
102	2	0	0	0	2	0.526965856552124	2	1	308.949789047241	500
103	2	0	0	0	1	0.502935171127319	1	1	311.965663909912	300
104	2	0	0	0	2	0.439322948455811	2	1	314.781229972839	300
105	2	1	0	0	2	0.472054004669189	2	1	317.59706401825	200
106	2	0	0	0	1	0.493103981018066	1	1	320.312738895416	100
107	2	0	0	0	1	0.550487041473389	1	1	322.92854809761	400
108	2	0	0	0	1	0.578257083892822	1	1	325.844341993332	100
109	2	0	0	0	2	0.537627935409546	2	1	328.46005487442	100
110	2	0	1	0	2	0.501807928085327	2	1	331.075927019119	500
111	2	0	0	0	1	0.539697885513306	1	1	334.091706037521	400
112	2	0	0	0	2	0.466732025146484	2	1	337.007392883301	200
113	2	0	0	0	1	0.506849050521851	1	1	339.723099946976	100
114	2	0	0	0	2	0.48359489440918	2	1	342.338883876801	300
115	2	0	1	0	1	0.419799089431763	1	1	345.154684066772	500
116	2	0	0	0	1	0.555450916290283	1	1	348.170408010483	500
117	2	0	0	0	1	0.522408008575439	1	1	351.186155080795	300
118	2	0	0	0	2	0.436108112335205	2	1	354.001821041107	500
119	2	0	0	0	1	0.493112802505493	1	1	357.017636060715	500
120	2	0	0	0	2	0.483211994171143	2	1	360.033205986023	400
121	3	0	0	0	2	0.535496950149536	2	1	391.406037092209	100
122	3	0	0	0	1	0.496619939804077	1	1	394.022093057632	500
123	3	0	0	0	1	0.537004947662354	1	1	397.037914037704	100
124	3	1	0	0	2	0.450347185134888	2	1	399.653603076935	400
125	3	0	0	0	2	0.523636102676392	2	1	402.569422960281	500
126	3	0	1	0	1	0.406486034393311	1	1	405.585119009018	500
127	3	0	0	0	1	0.509500026702881	1	1	408.6008040905	400
128	3	0	0	0	1	0.51085901260376	1	1	411.516447067261	200
129	3	0	0	0	1	0.510365009307861	1	1	414.232208967209	300
130	3	0	0	0	2	0.527864933013916	2	1	417.047937870026	300
131	3	0	1	0	1	0.481910943984985	1	1	419.863751888275	400
132	3	0	0	0	2	0.491825103759766	2	1	422.779500961304	500
133	3	0	0	0	2	0.513989925384521	2	1	425.795224905014	500
134	3	0	0	0	2	0.67979097366333	2	1	428.81093788147	300
135	3	0	0	0	2	0.540696144104004	2	1	431.626580953598	400
136	3	1	0	0	2	0.520112037658691	2	1	434.542361021042	300
137	3	0	0	0	2	0.504418849945068	2	1	437.358068943024	400
138	3	0	0	0	1	0.532634019851685	1	1	440.273843050003	300
139	3	0	0	0	2	0.522531032562256	2	1	443.089605093002	100
140	3	0	0	0	2	0.493398904800415	2	1	445.705264091492	100
141	3	0	0	0	2	0.491662979125977	2	1	448.321124076843	300
142	3	0	0	0	1	0.54974102973938	1	1	451.136950969696	200
143	3	0	1	0	2	0.45751690864563	2	1	453.852693080902	300
144	3	0	0	0	2	0.50631308555603	2	1	456.668494939804	300
145	3	0	0	0	2	0.492760896682739	2	1	459.484236955643	100
146	3	1	0	0	2	0.547869920730591	2	1	462.099997997284	400
147	3	0	0	0	2	0.494745969772339	2	1	465.015799999237	100
148	3	0	0	0	2	0.518802881240845	2	1	467.631442070007	400
149	3	1	0	0	1	0.516134023666382	1	1	470.547348022461	200
150	3	0	0	0	2	0.47183084487915	2	1	473.263038873672	400
151	3	0	0	0	1	0.483916997909546	1	1	476.178835868835	200
152	3	1	0	0	1	0.583271026611328	1	1	478.894630908966	100
153	3	0	0	0	2	0.464610815048218	2	1	481.510325908661	300
154	3	0	0	0	1	0.532778978347778	1	1	484.326154947281	100
155	3	0	0	0	1	0.56984806060791	1	1	486.941919088364	400
156	3	0	0	0	2	0.549265146255493	2	1	489.857708930969	200
157	3	0	0	0	1	0.522094011306763	1	1	492.57346200943	200
158	3	0	0	0	1	0.589787006378174	1	1	495.289222002029	500
159	3	0	0	0	1	0.554702043533325	1	1	498.305016994476	500
160	3	0	0	0	2	0.493284940719604	2	1	501.320718050003	300
161	3	0	0	0	1	0.494155168533325	1	1	504.13641500473	500
162	3	0	0	0	1	0.49241304397583	1	1	507.152143001556	500
163	3	0	0	0	1	0.496663808822632	1	1	510.167855978012	100
164	3	0	0	0	1	0.503289937973022	1	1	512.783520936966	200
165	3	0	0	0	2	0.473150968551636	2	1	515.499337911606	300
166	3	0	0	0	1	0.507951021194458	1	1	518.315135002136	200
167	3	0	1	0	2	0.496250867843628	2	1	521.030876874924	200
168	3	0	0	0	1	0.484893798828125	1	1	523.746670007706	500
169	3	1	0	0	1	0.541023969650269	1	1	526.762465953827	100
170	3	0	0	0	2	0.48498797416687	2	1	529.378148078918	500
171	3	0	0	0	1	0.461749076843262	1	1	532.393955945969	200
172	3	0	1	0	2	0.449672937393188	2	1	535.109683990479	300
173	3	0	0	0	1	0.482075929641724	1	1	537.925447940826	400
174	3	0	0	0	1	0.523586988449097	1	1	540.841198921204	200
175	3	0	0	0	2	0.546570062637329	2	1	543.55691409111	100
176	3	0	0	0	1	0.509359121322632	1	1	546.172695875168	400
177	3	0	0	0	1	0.551138162612915	1	1	549.088517904282	200
178	3	0	0	0	2	0.443409204483032	2	1	551.804214000702	100
179	3	0	1	0	1	0.451313972473145	1	1	554.419997930527	500
180	3	0	0	0	2	0.395967960357666	2	1	557.435829877853	400
181	4	0	0	0	2	0.450634956359863	2	1	586.35942697525	300
182	4	0	0	0	1	0.516216993331909	1	1	589.175463914871	200
183	4	0	1	0	2	0.311409950256348	2	1	591.891216993332	400
184	4	0	0	0	1	0.446959018707275	1	1	594.807034015656	100
185	4	0	0	0	2	0.476173877716064	2	1	597.422707080841	100
186	4	1	0	0	1	0.577471971511841	1	1	600.038522005081	400
187	4	0	0	0	2	0.410712003707886	2	1	602.954362869263	200
188	4	0	0	0	1	0.431742906570435	1	1	605.670073986053	300
189	4	0	1	0	1	0.594526052474976	1	1	608.485871076584	300
190	4	0	0	0	2	0.423628091812134	2	1	611.301651954651	100
191	4	0	0	0	2	0.572623014450073	2	1	613.917397975922	100
192	4	0	0	0	1	0.447607040405273	1	1	616.533194065094	500
193	4	0	1	0	2	0.475635051727295	2	1	619.548971891403	500
194	4	0	0	0	2	0.451658964157104	2	1	622.564702987671	500
195	4	0	0	0	1	0.572268962860107	1	1	625.58039188385	300
196	4	1	0	0	2	0.476063013076782	2	1	628.396089076996	200
197	4	0	0	0	1	0.467149019241333	1	1	631.111825942993	400
198	4	0	0	0	2	0.428408145904541	2	1	634.027625083923	400
199	4	1	0	0	2	0.505019903182983	2	1	636.943340063095	200
200	4	0	0	0	1	0.490751028060913	1	1	639.659076929092	300
201	4	0	0	0	1	0.572815895080566	1	1	642.474839925766	200
202	4	0	1	0	1	0.498147964477539	1	1	645.190586090088	500
203	4	0	0	0	2	0.489727973937988	2	1	648.206396102905	500
204	4	0	0	0	2	0.503998041152954	2	1	651.222083091736	100
205	4	0	0	0	2	0.555644989013672	2	1	653.837826013565	300
206	4	0	0	0	1	0.476875066757202	1	1	656.653610944748	200
207	4	0	0	0	2	0.500446081161499	2	1	659.369343042374	100
208	4	0	0	0	2	0.51977801322937	2	1	661.985050916672	400
209	4	0	0	0	2	0.499939203262329	2	1	664.900940895081	100
210	4	0	0	0	2	0.508673906326294	2	1	667.516658067703	400
211	4	1	0	0	1	0.584047079086304	1	1	670.432492017746	300
212	4	0	0	0	1	0.534734964370728	1	1	673.248202085495	100
213	4	0	0	0	2	0.496002912521362	2	1	675.863938093185	400
214	4	0	0	0	2	0.523591995239258	2	1	678.779771089554	300
215	4	0	0	0	1	0.477797031402588	1	1	681.595475912094	200
216	4	0	0	0	2	0.529818058013916	2	1	684.31125497818	500
217	4	0	0	0	1	0.479985952377319	1	1	687.326998949051	500
218	4	0	0	0	1	0.497841835021973	1	1	690.342729091644	400
219	4	0	0	0	1	0.46210789680481	1	1	693.258368968964	300
220	4	1	0	0	2	0.543208122253418	2	1	696.074133872986	100
221	4	0	0	0	1	0.518947839736938	1	1	698.689851999283	300
222	4	0	0	0	1	0.551015853881836	1	1	701.505737066269	200
223	4	0	0	0	2	0.56004810333252	2	1	704.221431970596	200
224	4	0	0	0	1	0.529056072235107	1	1	706.937210083008	400
225	4	0	0	0	2	0.475673913955688	2	1	709.853034973145	500
226	4	0	0	0	2	0.581240177154541	2	1	712.868759870529	100
227	4	0	0	0	2	0.508400917053223	2	1	715.484440088272	500
228	4	0	0	0	1	0.518975019454956	1	1	718.500251054764	500
229	4	0	0	0	1	0.445870876312256	1	1	721.515918016434	400
230	4	0	0	0	2	0.458892822265625	2	1	724.431621074677	200
231	4	0	0	0	1	0.462491035461426	1	1	727.147352933884	500
232	4	0	1	0	2	0.517093896865845	2	1	730.163146972656	400
233	4	0	0	0	2	0.562139987945557	2	1	733.078826904297	200
234	4	1	0	0	1	0.502315044403076	1	1	735.794538021088	100
235	4	0	0	0	1	0.496315002441406	1	1	738.410358905792	300
236	4	0	0	0	1	0.495075941085815	1	1	741.226144075394	400
237	4	0	0	0	1	0.458984136581421	1	1	744.141923904419	200
238	4	0	1	0	1	0.496073007583618	1	1	746.857666015625	100
239	4	0	0	0	2	0.489412069320679	2	1	749.473428010941	300
240	4	0	0	0	1	0.503761053085327	1	1	752.289223909378	500
