TrialNum	Block	Odd: Visual	Odd: Audio	Odd: Haptic	CueDirection	RT	RespDirection	Acc	TrialTime	ITI
1	1	0	0	0	1	0.147211074829102	2	2	6.60419464111328e-05	500
2	1	0	0	0	1	0.590098857879639	2	2	3.04244494438171	100
3	1	0	0	0	2	0.613168954849243	2	1	5.66615200042725	500
4	1	1	0	0	2	0.65605902671814	2	1	8.68187999725342	200
5	1	0	0	0	2	0.527473926544189	2	1	11.3979740142822	200
6	1	0	0	0	2	0.519918918609619	2	1	14.1183640956879	500
7	1	0	0	0	2	0.448276042938232	2	1	17.1279380321503	300
8	1	0	0	0	1	0.574068069458008	1	1	19.9435670375824	300
9	1	0	0	0	2	0.561532020568848	2	1	22.7593510150909	400
10	1	0	1	0	2	0.65215802192688	2	1	25.6750140190125	400
11	1	0	0	0	2	0.491163969039917	2	1	28.5907399654388	200
12	1	0	0	0	1	0.475532054901123	1	1	31.3063931465149	500
13	1	1	0	0	1	0.837849855422974	1	1	34.3221850395203	500
14	1	0	0	0	2	0.590717077255249	2	1	37.3378670215607	500
15	1	0	0	0	2	0.472938060760498	2	1	40.3535399436951	400
16	1	0	0	0	2	0.467383861541748	2	1	43.2692091464996	500
17	1	0	0	0	1	0.474547147750854	1	1	46.2849719524384	100
18	1	0	1	0	2	0.627543926239014	2	1	48.9005291461945	500
19	1	0	0	0	2	0.491584062576294	2	1	51.9164350032806	300
20	1	0	0	0	2	0.525402069091797	2	1	54.732038974762	100
21	1	0	0	0	1	0.739357948303223	1	1	57.3478419780731	300
22	1	0	0	0	1	0.515527963638306	1	1	60.163586139679	400
23	1	0	0	0	1	0.497985124588013	1	1	63.0793490409851	200
24	1	0	0	0	1	0.517076015472412	1	1	65.7951440811157	400
25	1	0	0	0	2	0.481017827987671	2	1	68.7109551429749	100
26	1	0	0	0	1	0.553333044052124	1	1	71.3266770839691	200
27	1	0	1	0	1	0.684636116027832	1	1	74.042387008667	100
28	1	0	0	0	1	0.518151998519897	1	1	76.6581649780273	200
29	1	0	0	0	1	0.521713018417358	1	1	79.3740689754486	100
30	1	0	0	0	1	0.498785018920898	1	1	81.9897639751434	100
31	1	0	1	0	1	0.490260124206543	1	1	84.6055920124054	400
32	1	0	0	0	2	0.516993045806885	2	1	87.5214929580688	300
33	1	1	0	0	1	0.581836938858032	1	1	90.3372309207916	200
34	1	0	0	0	1	0.492172002792358	1	1	93.0529570579529	300
35	1	0	0	0	1	0.457805871963501	1	1	95.8687469959259	100
36	1	0	0	0	2	0.501056909561157	2	1	98.4844269752502	300
37	1	1	0	0	1	0.568680047988892	1	1	101.300431013107	200
38	1	0	0	0	1	0.565939903259277	1	1	104.016073942184	500
39	1	1	0	0	2	0.575590133666992	2	1	107.031893968582	300
40	1	0	0	0	2	0.575448989868164	2	1	109.847588062286	500
41	1	0	0	0	2	0.551586151123047	2	1	112.863336086273	400
42	1	0	0	0	2	0.435518026351929	2	1	115.779047012329	300
43	1	0	0	0	1	0.583109140396118	1	1	118.59467792511	100
44	1	0	1	0	2	0.531247854232788	2	1	121.210493087769	500
45	1	0	0	0	1	0.503331899642944	1	1	124.22630906105	400
46	1	0	0	0	2	0.503026008605957	2	1	127.141988992691	500
47	1	0	0	0	1	0.457113027572632	1	1	130.157727956772	300
48	1	0	0	0	2	0.511226892471313	2	1	132.97338104248	200
49	1	0	1	0	1	0.461542129516602	1	1	135.689158916473	200
50	1	0	0	0	1	0.625574827194214	1	1	138.4048371315	100
51	1	1	0	0	2	0.544722080230713	2	1	141.020707130432	400
52	1	0	0	0	1	0.46895694732666	1	1	143.936537027359	400
53	1	0	0	0	2	0.451231002807617	2	1	146.852195978165	400
54	1	0	0	0	2	0.558334112167358	2	1	149.767990112305	100
55	1	0	0	0	2	0.487094163894653	2	1	152.383628129959	300
56	1	0	0	0	1	0.569552183151245	1	1	155.199547052383	400
57	1	0	0	0	1	0.532673120498657	1	1	158.115318059921	200
58	1	0	0	0	2	0.472684860229492	2	1	160.830897092819	200
59	1	0	0	0	2	0.460976839065552	2	1	163.546777963638	100
60	1	0	0	0	1	0.419536113739014	1	1	166.162555932999	300
61	2	0	0	0	1	0.565642118453979	1	1	179.008646965027	200
62	2	0	0	0	1	0.50775408744812	1	1	181.724209070206	500
63	2	0	0	0	2	0.483373880386353	2	1	184.740001916885	400
64	2	0	0	0	1	0.544312953948975	1	1	187.655678033829	300
65	2	0	0	0	1	0.559420824050903	1	1	190.471425056458	300
66	2	0	0	0	2	0.494881153106689	2	1	193.287155151367	300
67	2	0	0	0	2	0.578794002532959	2	1	196.102818012238	500
68	2	0	0	0	1	0.648725032806396	1	1	199.118662118912	200
69	2	0	0	0	1	0.555953025817871	1	1	201.834268093109	100
70	2	0	1	0	1	0.566762924194336	1	1	204.450083017349	400
71	2	0	0	0	1	0.513322830200195	1	1	207.365980148315	300
72	2	0	0	0	2	0.529922008514404	2	1	210.181689023972	400
73	2	0	0	0	2	0.515326976776123	2	1	213.097439050674	500
74	2	0	0	0	2	0.55014705657959	2	1	216.113136053085	100
75	2	1	0	0	2	0.623414993286133	2	1	218.728804111481	200
76	2	0	0	0	2	0.530673027038574	2	1	221.444672107697	100
77	2	0	0	0	1	0.601384878158569	1	1	224.060380935669	400
78	2	0	0	0	1	0.601407051086426	1	1	226.976292133331	200
79	2	0	0	0	1	0.632912874221802	1	1	229.691987991333	100
80	2	1	0	0	2	0.596072196960449	2	1	232.307773113251	100
81	2	0	0	0	1	0.523952960968018	1	1	234.923502922058	300
82	2	0	0	0	1	0.494389772415161	1	1	237.73940205574	100
83	2	0	0	0	1	0.484745979309082	1	1	240.355184078217	400
84	2	0	0	0	2	0.512293815612793	2	1	243.270980119705	500
85	2	0	0	0	1	0.471443176269531	1	1	246.286632061005	100
86	2	0	0	0	1	0.512454986572266	1	1	248.902302026749	300
87	2	0	0	0	1	0.543406963348389	1	1	251.718196153641	300
88	2	0	0	0	1	0.466004848480225	1	1	254.533967018127	500
89	2	0	1	0	1	0.807804107666016	1	1	257.549705028534	300
90	2	0	0	0	2	0.520481109619141	2	1	260.365396976471	100
91	2	0	0	0	1	0.533684015274048	1	1	262.981069087982	500
92	2	0	0	0	2	0.536216020584106	2	1	265.996987104416	400
93	2	0	0	0	2	0.64532995223999	2	1	268.912589073181	400
94	2	0	0	0	2	0.518507957458496	2	1	271.828372955322	500
95	2	1	0	0	2	0.554574012756348	2	1	274.844037055969	500
96	2	0	0	0	1	0.497254848480225	1	1	277.859790086746	300
97	2	0	0	0	1	0.560518980026245	1	1	280.675400972366	400
98	2	1	0	0	1	0.590088129043579	1	1	283.591160058975	300
99	2	0	0	0	2	0.495613098144531	2	1	286.406970977783	200
100	2	1	0	0	1	0.569777965545654	1	1	289.122725009918	100
101	2	0	0	0	1	0.57060694694519	1	1	291.738831043243	200
102	2	0	1	0	2	0.622338056564331	2	1	294.471023082733	500
103	2	0	0	0	2	0.553672075271606	2	1	297.48681807518	200
104	2	0	0	0	2	0.635505199432373	2	1	300.202508926392	500
105	2	0	0	0	2	0.486475944519043	2	1	303.218292951584	100
106	2	1	0	0	1	0.603724002838135	1	1	305.833997964859	200
107	2	0	0	0	2	0.499842882156372	2	1	308.549819946289	200
108	2	0	0	0	2	0.483577013015747	2	1	311.265563011169	200
109	2	0	0	0	2	0.52131986618042	2	1	313.981367111206	300
110	2	0	0	0	1	0.567876815795898	1	1	316.797151088715	200
111	2	0	0	0	1	0.491132020950317	1	1	319.513001918793	300
112	2	0	0	0	2	0.52357292175293	2	1	322.345346927643	400
113	2	0	0	0	2	0.504206895828247	2	1	325.261120080948	500
114	2	0	1	0	1	0.547847032546997	1	1	328.276802062988	400
115	2	0	0	0	2	0.4842689037323	2	1	331.192505121231	100
116	2	0	0	0	2	0.466652154922485	2	1	333.80833697319	100
117	2	0	0	0	1	0.55578088760376	1	1	336.440717935562	400
118	2	0	1	0	2	0.679798126220703	2	1	339.356532096863	500
119	2	0	0	0	2	0.576740980148315	2	1	342.372254133224	200
120	2	0	1	0	2	0.556370973587036	2	1	345.087953090668	400
121	3	0	0	0	2	0.492794036865234	2	1	355.418179988861	100
122	3	1	0	0	1	0.49878716468811	1	1	358.033811092377	500
123	3	0	0	0	2	0.482102155685425	2	1	361.049561977386	300
124	3	0	0	0	2	0.507841825485229	2	1	363.865248918533	500
125	3	0	0	0	1	0.740004062652588	1	1	366.88100194931	300
126	3	1	0	0	2	0.533658027648926	2	1	369.696696996689	400
127	3	0	0	0	1	0.546453952789307	1	1	372.612380027771	400
128	3	0	0	0	2	0.510010957717896	2	1	375.528151035309	200
129	3	0	0	0	2	0.848735809326172	2	1	378.243902921677	300
130	3	0	0	0	2	0.531461954116821	2	1	381.059684038162	400
131	3	0	0	0	1	0.639379978179932	1	1	383.975450992584	100
132	3	1	0	0	2	0.569715976715088	2	1	386.591169118881	300
133	3	0	0	0	2	0.88811206817627	2	1	389.406986951828	100
134	3	0	0	0	1	0.474009037017822	1	1	392.022733926773	100
135	3	0	0	0	1	0.51105809211731	1	1	394.638520956039	500
136	3	0	0	0	1	0.620059013366699	1	1	397.654340028763	300
137	3	0	0	0	2	0.47576904296875	2	1	400.470046043396	100
138	3	0	0	0	1	0.604115962982178	1	1	403.085777997971	400
139	3	0	0	0	1	0.513958930969238	1	1	406.001595973969	300
140	3	0	0	0	1	0.49168586730957	1	1	408.817297935486	500
141	3	0	0	0	2	0.553931951522827	2	1	411.83305811882	200
142	3	0	0	0	2	0.558235168457031	2	1	414.548681974411	500
143	3	0	1	0	1	0.553299903869629	1	1	417.56454706192	300
144	3	0	0	0	1	0.711678981781006	1	1	420.380233049393	200
145	3	0	0	0	1	0.494486093521118	1	1	423.09598493576	500
146	3	0	0	0	1	0.517101049423218	1	1	426.111758947372	200
147	3	0	0	0	1	0.443681955337524	1	1	428.827454090118	200
148	3	0	0	0	2	0.669389963150024	2	1	431.543247938156	100
149	3	1	0	0	1	0.740854024887085	1	1	434.159011125565	100
150	3	0	0	0	2	0.557892084121704	2	1	436.774830102921	500
151	3	1	0	0	1	0.65050196647644	1	1	439.790662050247	200
152	3	0	0	0	2	0.493600130081177	2	1	442.50635099411	200
153	3	0	1	0	2	0.597555160522461	2	1	445.222135066986	200
154	3	0	0	0	2	0.464392900466919	2	1	447.938141107559	500
155	3	0	0	0	2	0.491211175918579	2	1	450.970375061035	100
156	3	0	0	0	1	0.642504930496216	1	1	453.586061000824	400
157	3	0	1	0	1	0.510820865631104	1	1	456.501884937286	500
158	3	0	0	0	1	0.503038883209229	1	1	459.517614126205	400
159	3	1	0	0	2	0.537053108215332	2	1	462.433290958405	200
160	3	0	0	0	1	0.727171897888184	1	1	465.149124145508	300
161	3	0	1	0	2	0.535140037536621	2	1	467.981312990189	200
162	3	0	0	0	2	0.55718207359314	2	1	470.697093009949	300
163	3	0	0	0	1	0.587023973464966	1	1	473.512959957123	200
164	3	0	0	0	1	0.607620000839233	1	1	476.228647947311	400
165	3	0	0	0	2	0.494042158126831	2	1	479.14448595047	400
166	3	0	0	0	2	0.649234771728516	2	1	482.060217142105	100
167	3	0	0	0	1	0.481579780578613	1	1	484.675847053528	400
168	3	0	0	0	1	0.717787027359009	1	1	487.591658115387	300
169	3	0	0	0	2	0.49310302734375	2	1	490.407385110855	500
170	3	0	0	0	1	0.517324924468994	1	1	493.423215150833	200
171	3	0	0	0	2	0.473424911499023	2	1	496.138818025589	300
172	3	0	0	0	1	0.489892959594727	1	1	498.95469212532	400
173	3	0	0	0	1	0.663069009780884	1	1	501.870463132858	100
174	3	0	1	0	2	0.466017961502075	2	1	504.486103057861	100
175	3	0	0	0	2	0.534611940383911	2	1	507.101998090744	400
176	3	0	0	0	1	0.516075849533081	1	1	510.017828941345	400
177	3	0	0	0	2	0.527113914489746	2	1	512.933522939682	500
178	3	0	0	0	2	0.567028999328613	2	1	515.949239969254	300
179	3	0	1	0	1	0.491443872451782	1	1	518.764934062958	100
180	3	0	0	0	2	0.672091960906982	2	1	521.380685091019	500
181	4	0	0	0	1	0.477576017379761	1	1	536.342657089233	300
182	4	0	0	0	1	0.530610084533691	1	1	539.158326148987	400
183	4	0	0	0	2	0.444950103759766	2	1	542.074065923691	500
184	4	0	0	0	2	0.538393020629883	2	1	545.089813947678	500
185	4	0	0	0	1	0.538629055023193	1	1	548.105478048325	200
186	4	0	0	0	2	0.638180017471313	2	1	550.821176052094	300
187	4	0	1	0	1	0.496301889419556	1	1	553.636955976486	100
188	4	0	0	0	2	0.505286931991577	2	1	556.252742052078	300
189	4	0	1	0	1	0.535820960998535	1	1	559.068542957306	300
190	4	0	0	0	2	0.487783908843994	2	1	561.884279966354	200
191	4	0	0	0	2	0.652332067489624	2	1	564.600027084351	300
192	4	0	0	0	1	0.53197193145752	1	1	567.415813922882	400
193	4	0	0	0	1	0.505763053894043	1	1	570.331576108932	400
194	4	0	0	0	1	0.487201929092407	1	1	573.247287988663	100
195	4	0	0	0	1	0.541150093078613	1	1	575.86301612854	100
196	4	0	0	0	2	0.51752495765686	2	1	578.478834152222	100
197	4	0	0	0	2	0.544168949127197	2	1	581.094679117203	400
198	4	0	0	0	2	0.526818990707397	2	1	584.010497093201	300
199	4	0	0	0	2	0.456862926483154	2	1	586.826195001602	100
200	4	0	0	0	2	0.456920146942139	2	1	589.441972017288	200
201	4	0	0	0	1	0.602488994598389	1	1	592.157776117325	300
202	4	1	0	0	2	0.583747863769531	2	1	594.973549127579	400
203	4	0	0	0	1	0.5606849193573	1	1	597.889219045639	300
204	4	0	0	0	2	0.486969947814941	2	1	600.70502614975	200
205	4	0	1	0	2	0.557399988174438	2	1	603.420793056488	100
206	4	0	0	0	2	0.544608116149902	2	1	606.036572933197	300
207	4	0	0	0	2	0.479236125946045	2	1	608.852404117584	400
208	4	0	0	0	1	0.617611885070801	1	1	611.768060922623	100
209	4	0	0	0	2	0.612892866134644	2	1	614.383857965469	500
210	4	0	1	0	2	0.509703874588013	2	1	617.399672031403	400
211	4	0	0	0	1	0.50596022605896	1	1	620.315364122391	400
212	4	1	0	0	2	0.533348083496094	2	1	623.231089115143	400
213	4	0	0	0	2	0.534323930740356	2	1	626.146809101105	200
214	4	0	0	0	1	0.534327983856201	1	1	628.862530946732	400
215	4	0	0	0	1	0.546999931335449	1	1	631.778239965439	400
216	4	0	0	0	1	0.495710849761963	1	1	634.694041967392	100
217	4	1	0	0	1	0.500725030899048	1	1	637.309750080109	500
218	4	0	0	0	2	0.51377010345459	2	1	640.325603961945	500
219	4	0	0	0	1	0.535223007202148	1	1	643.341295003891	500
220	4	0	1	0	1	0.591882944107056	1	1	646.356992006302	300
221	4	0	0	0	2	0.511641025543213	2	1	649.17266702652	500
222	4	0	0	0	2	0.458173036575317	2	1	652.188418149948	200
223	4	0	0	0	2	0.460711002349854	2	1	654.904093027115	300
224	4	0	0	0	1	0.511911153793335	1	1	657.719797134399	400
225	4	1	0	0	1	0.535827875137329	1	1	660.635622024536	500
226	4	0	0	0	1	0.516575813293457	1	1	663.651345968246	500
227	4	0	0	0	2	0.569761991500854	2	1	666.667246103287	200
228	4	0	0	0	1	0.604055881500244	1	1	669.399430990219	500
229	4	1	0	0	2	0.550379991531372	2	1	672.415230035782	200
230	4	0	0	0	1	0.47824501991272	1	1	675.130918979645	100
231	4	0	0	0	1	0.499200105667114	1	1	677.746688127518	100
232	4	0	0	0	1	0.605483055114746	1	1	680.362525939941	200
233	4	0	0	0	1	0.477043867111206	1	1	683.078336954117	100
234	4	0	0	0	1	0.48911190032959	1	1	685.694133043289	300
235	4	0	0	0	2	0.567425012588501	2	1	688.510235071182	200
236	4	0	1	0	2	0.521367788314819	2	1	691.242346048355	500
237	4	0	0	0	2	0.514878988265991	2	1	694.258151054382	100
238	4	1	0	0	1	0.569519996643066	1	1	696.873933076859	200
239	4	0	0	0	2	0.60751485824585	2	1	699.589637994766	200
240	4	0	0	0	1	0.433923006057739	1	1	702.305413007736	500
