TrialNum	Block	Odd: Visual	Odd: Audio	Odd: Haptic	CueDirection	RT	RespDirection	Acc	TrialTime	ITI
1	1	0	0	0	2	0.479534864425659	2	1	4.69684600830078e-05	300
2	1	0	0	0	2	0.608067035675049	2	1	2.81595182418823	400
3	1	0	0	0	1	0.349714994430542	1	1	5.73188591003418	200
4	1	0	0	0	1	0.560691118240356	1	1	8.44782185554504	100
5	1	0	0	0	2	0.44864296913147	2	1	11.0637958049774	100
6	1	0	0	0	2	0.625739097595215	2	1	13.6797888278961	200
7	1	0	0	0	2	0.500300884246826	2	1	16.3958067893982	500
8	1	0	1	0	1	0.774109125137329	1	1	19.4117708206177	200
9	1	0	0	0	1	0.384996175765991	1	1	22.1276807785034	200
10	1	0	1	0	1	0.436920881271362	1	1	24.8436470031738	300
11	1	0	0	0	2	0.629356861114502	2	1	27.6596307754517	400
12	1	0	0	0	2	0.425480127334595	2	1	30.5755767822266	100
13	1	0	0	0	1	0.000586986541748047	2	2	33.191508769989	400
14	1	0	0	0	1	0.502295017242432	1	1	36.1075849533081	100
15	1	0	0	0	2	0.502212047576904	2	1	38.7234299182892	300
16	1	0	0	0	1	0.55057692527771	1	1	41.5394248962402	400
17	1	0	0	0	1	0.594949007034302	1	1	44.4553818702698	400
18	1	0	1	0	2	0.422646045684814	2	1	47.3712909221649	400
19	1	0	0	0	2	0.628268003463745	2	1	50.287220954895	400
20	1	0	0	0	2	0.486974954605103	2	1	53.2031428813934	400
21	1	1	0	0	2	0.588238954544067	2	1	56.1190588474274	200
22	1	0	0	0	1	0.583869934082031	1	1	58.834981918335	100
23	1	0	0	0	1	0.560017824172974	1	1	61.4509389400482	200
24	1	0	0	0	2	0.556210041046143	2	1	64.1669449806213	100
25	1	0	0	0	1	0.500212907791138	1	1	66.7829089164734	500
26	1	0	0	0	2	0.491734027862549	2	1	69.7989058494568	500
27	1	1	0	0	1	0.628288984298706	1	1	72.8148009777069	500
28	1	0	0	0	2	0.428355932235718	2	1	75.8306858539581	300
29	1	0	0	0	2	0.564979076385498	2	1	78.6465678215027	400
30	1	0	0	0	1	0.50416088104248	1	1	81.5625228881836	100
31	1	0	1	0	2	0.377325057983398	2	1	84.1784348487854	500
32	1	0	0	0	1	0.553958892822266	1	1	87.1944489479065	300
33	1	1	0	0	2	0.465656995773315	2	1	90.0103139877319	300
34	1	0	0	0	2	0.47928786277771	2	1	92.8262498378754	400
35	1	0	0	0	2	0.502508163452148	2	1	95.7421798706055	100
36	1	0	0	0	1	0.478246927261353	1	1	98.3580958843231	300
37	1	0	0	0	1	0.454555034637451	1	1	101.174095869064	300
38	1	0	0	0	1	0.558210134506226	1	1	103.990023851395	200
39	1	1	0	0	1	0.466885805130005	1	1	106.705971002579	200
40	1	0	0	0	1	0.519179105758667	1	1	109.421930789948	300
41	1	0	0	0	1	0.544179916381836	1	1	112.237902879715	100
42	1	0	0	0	2	0.594501972198486	2	1	114.853825807571	500
43	1	0	0	0	2	0.39155912399292	2	1	117.869817972183	300
44	1	0	1	0	1	0.367417097091675	1	1	120.685695886612	200
45	1	0	0	0	2	0.587468147277832	2	1	123.401626825333	300
46	1	0	0	0	2	0.421267032623291	1	2	126.217600822449	500
47	1	0	0	0	1	0.451850891113281	1	1	129.233538866043	500
48	1	0	1	0	2	0.356056928634644	2	1	132.24942278862	200
49	1	0	0	0	2	0.390118837356567	2	1	134.965285778046	400
50	1	0	0	0	1	0.364613056182861	1	1	137.881249904633	300
51	1	0	0	0	1	0.588718891143799	1	1	140.697228908539	500
52	1	0	0	0	2	0.357335090637207	2	1	143.713149785995	200
53	1	0	0	0	1	0	0	99	146.428958892822	500
54	1	1	0	0	1	0.434409856796265	2	2	149.843904972076	100
55	1	0	0	0	2	0.377670049667358	2	1	152.460696935654	100
56	1	0	0	0	1	0.450231075286865	1	1	155.076680898666	100
57	1	0	0	0	2	0.426758050918579	2	1	157.692664861679	500
58	1	1	0	0	2	0.474236965179443	2	1	160.708645820618	200
59	1	0	0	0	1	0.45474100112915	1	1	163.424510955811	500
60	1	0	0	0	1	0.510515928268433	1	1	166.440477848053	400
61	2	0	0	0	1	0.428966045379639	1	1	179.120277881622	400
62	2	0	1	0	2	0.411084175109863	2	1	182.036372900009	300
63	2	0	0	0	1	0.427662134170532	1	1	184.85227894783	200
64	2	0	1	0	2	0.589170217514038	2	1	187.568207979202	200
65	2	0	0	0	1	0.390544891357422	1	1	190.284158945084	500
66	2	0	0	0	2	0.459600925445557	2	1	193.300124883652	100
67	2	0	0	0	2	0.523980855941772	2	1	195.915985822678	300
68	2	0	1	0	1	0.388372182846069	1	1	198.731969833374	300
69	2	0	0	0	2	0.519621849060059	2	1	201.54790186882	100
70	2	0	0	0	1	0.361145973205566	1	1	204.163812875748	100
71	2	0	0	0	2	0.644385099411011	2	1	206.779803991318	100
72	2	0	0	0	2	0.444688081741333	2	1	209.395771980286	400
73	2	0	0	0	1	0.480637073516846	1	1	212.311756849289	500
74	2	0	0	0	2	0.575427055358887	2	1	215.327653884888	100
75	2	1	0	0	2	0.689266920089722	2	1	217.943566799164	200
76	2	0	0	0	2	0.565744161605835	2	1	220.659469842911	200
77	2	1	0	0	2	0.497871160507202	2	1	223.375417947769	200
78	2	0	0	0	2	0.459537982940674	2	1	226.091357946396	500
79	2	0	0	0	1	0.346786022186279	2	2	229.107329845428	500
80	2	0	0	0	1	0.414930820465088	1	1	232.123204946518	500
81	2	0	0	0	2	0.595161914825439	2	1	235.139053821564	100
82	2	0	0	0	2	0.518138885498047	2	1	237.754917860031	100
83	2	0	0	0	1	0.533041000366211	1	1	240.370888948441	300
84	2	0	1	0	1	0.443526983261108	1	1	243.186871767044	100
85	2	0	0	0	1	0.465759038925171	1	1	245.802789926529	500
86	2	0	0	0	1	0.455528974533081	1	1	248.818761825562	300
87	2	0	0	0	2	0.565015077590942	2	1	251.634636878967	500
88	2	0	0	0	2	0.532650947570801	2	1	254.650550842285	400
89	2	0	0	0	1	0.715590000152588	1	1	257.566427946091	100
90	2	0	0	0	2	0.395761966705322	2	1	260.182303905487	200
91	2	0	0	0	1	0.481819868087769	1	1	262.898286819458	200
92	2	0	0	0	1	0.449349164962769	1	1	265.614232778549	500
93	2	0	0	0	1	0.388818979263306	1	1	268.63018488884	100
94	2	0	0	0	1	0.352807998657227	2	2	271.24604177475	200
95	2	0	0	0	2	0.457048177719116	2	1	273.962015867233	400
96	2	1	0	0	2	0.569997787475586	2	1	276.877968788147	300
97	2	0	0	0	1	0.565001010894775	1	1	279.693862915039	400
98	2	0	0	0	1	0.49924898147583	1	1	282.609780788422	200
99	2	0	0	0	1	0.442609071731567	1	1	285.32567191124	500
100	2	0	0	0	2	0.574276924133301	2	1	288.341630935669	400
101	2	0	0	0	2	0.593796014785767	2	1	291.257483959198	300
102	2	0	1	0	1	0.642603874206543	1	1	294.073366880417	300
103	2	0	0	0	2	0.450307846069336	2	1	296.889285802841	500
104	2	0	0	0	1	0.530985116958618	1	1	299.90522480011	400
105	2	0	0	0	2	0.395793914794922	2	1	302.821082830429	400
106	2	0	0	0	2	0.283387184143066	1	2	305.736949920654	100
107	2	0	0	0	1	0.517080068588257	1	1	308.35285282135	400
108	2	0	0	0	1	0.539168119430542	1	1	311.268817901611	500
109	2	0	1	0	2	0.403503894805908	2	1	314.284708976746	400
110	2	0	0	0	1	0.548158884048462	1	1	317.200556993484	200
111	2	0	0	0	2	0.383757829666138	2	1	319.916453838348	500
112	2	1	0	0	1	0.69698691368103	1	1	322.932396888733	300
113	2	0	0	0	2	0.456515073776245	2	1	325.748263835907	300
114	2	0	0	0	2	0.480835914611816	2	1	328.56418299675	100
115	2	1	0	0	1	0.549962997436523	1	1	331.180089950562	300
116	2	0	0	0	2	0.497358083724976	2	1	333.996060848236	200
117	2	0	0	0	1	0.468880176544189	1	1	336.711970806122	400
118	2	0	0	0	2	0.306103944778442	2	1	339.627923965454	400
119	2	1	0	0	1	0.746484041213989	1	1	342.543818950653	300
120	2	0	0	0	1	0.653569936752319	1	1	345.359689950943	200
121	3	0	1	0	1	0.549125194549561	1	1	359.888994932175	200
122	3	0	0	0	1	0.54597806930542	1	1	362.605127811432	200
123	3	0	0	0	1	0.401716947555542	1	1	365.320994853973	500
124	3	0	0	0	1	0.453069925308228	1	1	368.336919784546	300
125	3	0	0	0	2	0.538285970687866	2	1	371.152800798416	300
126	3	0	1	0	1	0.574113130569458	1	1	373.968713998795	300
127	3	0	0	0	1	0.557760953903198	1	1	376.784625768661	200
128	3	0	0	0	2	0.529880046844482	2	1	379.50053691864	400
129	3	0	0	0	2	0.54987621307373	2	1	382.416474819183	200
130	3	0	0	0	1	0.410262823104858	1	1	385.132360935211	400
131	3	1	0	0	2	0.422451972961426	2	1	388.048300981522	300
132	3	0	0	0	2	0.495332956314087	2	1	390.864180803299	200
133	3	0	0	0	1	0.396347999572754	1	1	393.580091953278	100
134	3	0	0	0	2	0.402781009674072	2	1	396.196036815643	300
135	3	0	0	0	1	0.498239040374756	1	1	399.012002944946	400
136	3	0	0	0	2	0.431735038757324	2	1	401.927905797958	300
137	3	0	0	0	2	0.455173969268799	1	2	404.74379491806	400
138	3	0	0	0	2	0.315713167190552	2	1	407.659711837769	200
139	3	0	0	0	2	0.523902177810669	2	1	410.375599861145	200
140	3	0	0	0	1	0.612442016601562	1	1	413.091536998749	400
141	3	0	1	0	2	0.424077987670898	1	2	416.00746178627	100
142	3	0	0	0	1	0.504912137985229	1	1	418.62335896492	500
143	3	0	0	0	2	0.440316915512085	2	1	421.639325857162	400
144	3	0	0	0	2	0.420948028564453	2	1	424.555173873901	500
145	3	0	0	0	1	0.373438835144043	2	2	427.571062803268	400
146	3	0	0	0	2	0.481149911880493	2	1	430.486928939819	200
147	3	1	0	0	1	0.653719902038574	1	1	433.20280790329	100
148	3	0	0	0	1	0.629600048065186	1	1	435.818728923798	100
149	3	0	0	0	1	0.437288999557495	1	1	438.434705972672	500
150	3	0	0	0	1	0.381362915039062	2	2	441.45067191124	500
151	3	0	0	0	2	0.614304780960083	2	1	444.466518878937	500
152	3	0	1	0	2	0.470546960830688	2	1	447.482373952866	200
153	3	0	0	0	1	0.498570203781128	1	1	450.19823884964	300
154	3	0	1	0	2	0.490454912185669	2	1	453.014164924622	200
155	3	0	0	0	2	0.49434494972229	2	1	455.730078935623	100
156	3	0	0	0	1	0.534726858139038	1	1	458.346013784409	100
157	3	0	0	0	1	0.511495113372803	1	1	460.961979866028	400
158	3	0	1	0	1	0.251078844070435	1	1	463.877942800522	100
159	3	0	0	0	1	0.715937852859497	1	1	466.493827819824	400
160	3	0	0	0	1	0.43966007232666	1	1	469.40979385376	100
161	3	1	0	0	1	0.463556051254272	1	1	472.025667905807	300
162	3	0	0	0	2	0.553290843963623	1	2	474.841628789902	400
163	3	0	0	0	2	0.368978977203369	2	1	477.757551908493	100
164	3	0	0	0	1	0.722139835357666	1	1	480.373425960541	100
165	3	0	0	0	2	0.652599096298218	2	1	482.989385843277	500
166	3	0	0	0	2	0.444873809814453	2	1	486.005348920822	300
167	3	0	0	0	1	0.404465198516846	1	1	488.821263790131	100
168	3	0	0	0	2	0.493072986602783	2	1	491.43719291687	400
169	3	0	0	0	2	0.498218059539795	2	1	494.353097915649	500
170	3	0	0	0	2	0.673306941986084	2	1	497.368963956833	500
171	3	0	0	0	2	0.17137598991394	2	1	500.384804964066	300
172	3	0	0	0	1	0.526319980621338	1	1	503.200670003891	400
173	3	1	0	0	2	0.926292896270752	2	1	506.116577863693	500
174	3	0	0	0	1	0.462145090103149	1	1	509.132457971573	500
175	3	0	0	0	2	0.447103023529053	2	1	512.148311853409	300
176	3	0	0	0	2	0.547814846038818	2	1	514.964166879654	200
177	3	1	0	0	2	0.75433087348938	2	1	517.680069923401	500
178	3	0	0	0	1	0.602509021759033	1	1	520.695999860764	300
179	3	1	0	0	1	0.59565806388855	1	1	523.511868000031	100
180	3	0	0	0	1	0.451472043991089	1	1	526.12775683403	200
181	4	0	1	0	2	0.574239015579224	2	1	541.356892824173	200
182	4	0	0	0	2	0.394986152648926	2	1	544.072956800461	200
183	4	0	0	0	1	0.446621894836426	1	1	546.788888931274	500
184	4	0	0	0	2	0.502979040145874	2	1	549.804820775986	400
185	4	1	0	0	1	0.420346021652222	1	1	552.720677852631	400
186	4	0	0	0	1	0.430981874465942	1	1	555.636562824249	100
187	4	0	1	0	1	0.407711982727051	1	1	558.252429962158	300
188	4	0	0	0	1	0.423631906509399	1	1	561.068386793137	500
189	4	0	0	0	1	0.432163000106812	1	1	564.084296941757	200
190	4	0	0	0	1	0.427971124649048	1	1	566.800159931183	400
191	4	1	0	0	2	0.592934131622314	2	1	569.716078996658	500
192	4	0	0	0	2	0.377613067626953	2	1	572.731970787048	300
193	4	0	1	0	1	0.600672006607056	1	1	575.547813892365	200
194	4	0	0	0	1	0.59698486328125	1	1	578.263721942902	500
195	4	0	0	0	2	0.389625072479248	2	1	581.279663801193	300
196	4	0	0	0	2	0.678056955337524	2	1	584.0955119133	100
197	4	0	0	0	1	0.350226879119873	1	1	586.711408853531	400
198	4	0	0	0	2	0.51335597038269	2	1	589.627370834351	500
199	4	0	0	0	1	0.482440948486328	1	1	592.643253803253	300
200	4	0	0	0	1	0.489867925643921	1	1	595.45910692215	200
201	4	0	0	0	1	0.629961013793945	1	1	598.175014972687	300
202	4	0	0	0	2	0.486959934234619	2	1	600.990960836411	200
203	4	0	1	0	1	0.578351974487305	1	1	603.706850767136	300
204	4	0	0	0	2	0.514435052871704	2	1	606.522782802582	100
205	4	0	0	0	2	0.755880117416382	2	1	609.138678789139	200
206	4	0	0	0	2	0.471372842788696	2	1	611.854719877243	400
207	4	0	0	0	1	0.627694129943848	1	1	614.770577907562	100
208	4	1	0	0	1	0.474946022033691	1	1	617.38646697998	300
209	4	0	0	0	1	0.388688087463379	1	1	620.202420949936	200
210	4	0	0	0	2	0.503651857376099	2	1	622.918372869492	300
211	4	0	0	0	2	0.576153993606567	2	1	625.734258890152	300
212	4	0	0	0	1	0.457674026489258	1	1	628.550159931183	400
213	4	1	0	0	2	0.542200088500977	2	1	631.466073989868	200
214	4	0	0	0	1	0.608676910400391	1	1	634.181939840317	100
215	4	0	0	0	1	0.496938943862915	1	1	636.797830820084	400
216	4	0	0	0	1	0.101340055465698	1	1	639.713839769363	300
217	4	0	0	0	2	0.485506057739258	2	1	642.529726982117	100
218	4	0	0	0	1	0.540970087051392	1	1	645.145625829697	400
219	4	0	0	0	1	0.521235942840576	1	1	648.061599969864	300
220	4	0	0	0	2	0.497551918029785	2	1	650.877481937408	100
221	4	1	0	0	2	0.457993030548096	2	1	653.493359804153	100
222	4	0	0	0	2	0.43355917930603	2	1	656.109324932098	100
223	4	0	0	0	2	0.410377979278564	2	1	658.72527384758	500
224	4	0	1	0	2	0.380182027816772	2	1	661.741218805313	400
225	4	0	0	0	2	0.591017007827759	2	1	664.657123804092	200
226	4	0	0	0	1	0.266837120056152	2	2	667.372963905334	500
227	4	0	0	0	2	0.586293935775757	1	2	670.388906002045	500
228	4	0	0	0	1	0.434930086135864	1	1	673.404753923416	500
229	4	0	1	0	2	0.564267158508301	2	1	676.420594930649	500
230	4	0	0	0	2	0.595169067382812	1	2	679.436448812485	400
231	4	0	0	0	2	0.503556966781616	2	1	682.352291822433	100
232	4	0	0	0	2	0.479856014251709	2	1	684.96817779541	400
233	4	1	0	0	1	0.69185996055603	1	1	687.884132862091	100
234	4	0	0	0	2	0.652438879013062	1	2	690.500012874603	200
235	4	0	0	0	2	0.528433084487915	2	1	693.215960979462	200
236	4	0	0	0	1	0.66051197052002	1	1	695.931904792786	300
237	4	0	0	0	1	0.605430126190186	1	1	698.748099803925	500
238	4	0	0	0	1	0.468603849411011	1	1	701.763769865036	100
239	4	0	0	0	2	0.572580099105835	2	1	704.379583835602	400
240	4	0	0	0	1	0.443325996398926	1	1	707.295552968979	500
