TrialNum	Block	Odd: Visual	Odd: Audio	Odd: Haptic	CueDirection	RT	RespDirection	Acc	TrialTime	ITI
1	1	0	0	0	2	0.504472017288208	2	1	2.19345092773438e-05	200
2	1	0	0	0	1	0.554119110107422	1	1	2.71613597869873	200
3	1	0	0	0	2	0.56013298034668	2	1	5.43184804916382	200
4	1	0	0	0	1	0.547430992126465	1	1	8.1476309299469	400
5	1	0	1	0	2	0.816644191741943	2	1	11.0634799003601	400
6	1	0	0	0	2	0.62027907371521	2	1	13.9791889190674	300
7	1	0	1	0	1	0.55687689781189	1	1	16.7949090003967	100
8	1	0	0	0	1	0.64476203918457	1	1	19.4106531143188	100
9	1	0	0	0	2	0.524465084075928	2	1	22.026477098465	500
10	1	0	0	0	2	0.502082824707031	2	1	25.0423109531403	400
11	1	0	0	0	1	0.497822999954224	1	1	27.9580090045929	400
12	1	0	0	0	1	0.494091987609863	1	1	30.8737518787384	100
13	1	0	1	0	2	0.549970865249634	2	1	33.4894740581512	200
14	1	0	0	0	2	0.442338943481445	2	1	36.2053050994873	500
15	1	0	0	0	1	0.482347965240479	1	1	39.2211470603943	200
16	1	0	0	0	2	0.566790103912354	2	1	41.9367098808289	300
17	1	0	1	0	2	0.470751047134399	2	1	44.752669095993	400
18	1	0	0	0	2	0.45452880859375	2	1	47.6683270931244	300
19	1	0	0	0	1	0.537010908126831	1	1	50.4840819835663	400
20	1	1	0	0	1	0.673666000366211	1	1	53.3998460769653	100
21	1	0	0	0	1	0.520148038864136	1	1	56.0155670642853	500
22	1	0	0	0	1	0.557524919509888	1	1	59.0313489437103	500
23	1	0	0	0	1	0.471201181411743	1	1	62.0470991134644	500
24	1	0	0	0	2	0.53044605255127	2	1	65.0628020763397	500
25	1	0	0	0	1	0.617523908615112	1	1	68.0785069465637	400
26	1	0	0	0	1	0.533448934555054	1	1	70.9941999912262	300
27	1	0	0	0	2	0.438839197158813	2	1	73.8099310398102	500
28	1	0	0	0	1	0.574992179870605	1	1	76.8257029056549	100
29	1	0	0	0	2	0.535006046295166	2	1	79.4413950443268	100
30	1	0	0	0	1	0.565332174301147	1	1	82.0572049617767	200
31	1	1	0	0	2	0.720988988876343	2	1	84.7730491161346	300
32	1	0	0	0	1	0.547167062759399	1	1	87.5889070034027	200
33	1	0	0	0	2	0.477223873138428	2	1	90.304594039917	200
34	1	0	0	0	2	0.604035139083862	2	1	93.0204010009766	400
35	1	0	0	0	2	0.473042964935303	2	1	95.9361879825592	500
36	1	0	0	0	1	0.609189987182617	1	1	98.9519350528717	300
37	1	0	0	0	2	0.721340894699097	2	1	101.767586946487	200
38	1	0	0	0	1	0.485785007476807	1	1	104.483371973038	500
39	1	0	0	0	1	0.493486881256104	1	1	107.499155044556	300
40	1	0	1	0	1	0.570443153381348	1	1	110.314865112305	500
41	1	0	0	0	2	0.487884998321533	2	1	113.33061504364	400
42	1	0	0	0	2	0.530355930328369	2	1	116.246324062347	300
43	1	0	0	0	1	0.469078063964844	1	1	119.062021017075	200
44	1	0	0	0	2	0.422652959823608	2	1	121.777858018875	300
45	1	0	0	0	1	0.519083976745605	1	1	124.593596935272	100
46	1	0	0	0	1	0.464345932006836	1	1	127.209374904633	100
47	1	1	0	0	2	0.583293914794922	2	1	129.825217008591	200
48	1	0	0	0	2	0.465389013290405	2	1	132.541090965271	100
49	1	0	0	0	2	0.419641017913818	2	1	135.156882047653	300
50	1	0	0	0	2	0.51575493812561	2	1	137.972656965256	400
51	1	0	0	0	1	0.561985969543457	1	1	140.88842010498	100
52	1	0	1	0	1	0.508398056030273	1	1	143.504148006439	500
53	1	0	0	0	2	0.516807079315186	2	1	146.519953012466	500
54	1	0	0	0	1	0.488799095153809	1	1	149.535650014877	100
55	1	1	0	0	1	0.577172040939331	1	1	152.151350021362	400
56	1	0	0	0	2	0.573584079742432	2	1	155.067190885544	300
57	1	0	0	0	2	0.638353109359741	2	1	157.882915019989	200
58	1	1	0	0	1	0.610736846923828	1	1	160.598659038544	400
59	1	0	0	0	1	0.576560974121094	1	1	163.514486074448	300
60	1	1	0	0	2	0.607369899749756	2	1	166.330195903778	100
61	2	0	0	0	1	0.589684009552002	1	1	187.722990036011	500
62	2	1	0	0	1	0.422038078308105	1	1	190.739115953445	200
63	2	0	0	0	1	0.426656007766724	1	1	193.454822063446	200
64	2	0	0	0	1	0.447144031524658	1	1	196.170605897903	100
65	2	0	0	0	2	0.445866823196411	2	1	198.786396026611	500
66	2	0	0	0	1	0.510285139083862	1	1	201.802226066589	100
67	2	0	0	0	1	0.421606063842773	1	1	204.41791510582	100
68	2	0	1	0	2	0.383446931838989	2	1	207.03374505043	400
69	2	0	0	0	1	0.556462049484253	1	1	209.949577093124	300
70	2	0	0	0	2	0.477468013763428	2	1	212.765300989151	400
71	2	0	0	0	1	0.474207878112793	1	1	215.681072950363	300
72	2	0	0	0	1	0.493787050247192	1	1	218.496859073639	500
73	2	1	0	0	2	0.535521984100342	2	1	221.51255106926	400
74	2	0	0	0	2	0.445865154266357	2	1	224.428256988525	200
75	2	1	0	0	1	0.449650049209595	1	1	227.143937110901	100
76	2	0	0	0	2	0.472282886505127	2	1	229.759737968445	200
77	2	0	0	0	2	0.414820909500122	2	1	232.47555398941	400
78	2	0	0	0	1	0.48029899597168	1	1	235.39132809639	100
79	2	0	1	0	1	0.515629053115845	1	1	238.007061004639	100
80	2	0	0	0	1	0.427057027816772	1	1	240.62290096283	500
81	2	0	0	0	1	0.569372892379761	1	1	243.638734102249	200
82	2	0	0	0	2	0.462015867233276	2	1	246.354396104813	100
83	2	0	0	0	1	0.591536998748779	1	1	248.970149993896	100
84	2	0	0	0	2	0.423717975616455	2	1	251.586004018784	500
85	2	0	1	0	2	0.603945970535278	2	1	254.60186290741	100
86	2	0	0	0	2	0.50426197052002	2	1	257.217617034912	400
87	2	1	0	0	1	0.454602003097534	1	1	260.133414030075	100
88	2	0	0	0	1	0.556681156158447	1	1	262.749099969864	300
89	2	1	0	0	2	0.444899082183838	2	1	265.564973115921	100
90	2	0	0	0	2	0.472786903381348	2	1	268.180675029755	300
91	2	0	0	0	2	0.54964017868042	2	1	270.996510028839	500
92	2	0	0	0	2	0.465543031692505	2	1	274.012273073196	300
93	2	0	0	0	2	0.5589280128479	2	1	276.827965021133	500
94	2	0	0	0	2	0.419201135635376	2	1	279.843729019165	200
95	2	0	0	0	1	0.688629865646362	1	1	282.559437990189	300
96	2	0	0	0	1	0.603003025054932	1	1	285.375216007233	400
97	2	0	0	0	2	0.55314302444458	2	1	288.290976047516	500
98	2	0	0	0	1	0.447757959365845	1	1	291.306706905365	100
99	2	0	0	0	1	0.504251003265381	1	1	293.922372102737	300
100	2	0	0	0	2	0.472348928451538	2	1	296.738214015961	200
101	2	0	1	0	1	0.572583913803101	1	1	299.453993082047	400
102	2	0	0	0	2	0.456254959106445	2	1	302.369770050049	300
103	2	0	0	0	1	0.422147989273071	1	1	305.185482978821	300
104	2	0	0	0	1	0.713813066482544	1	1	308.001267910004	300
105	2	0	0	0	2	0.457437038421631	2	1	310.817059993744	400
106	2	0	0	0	2	0.517706871032715	2	1	313.732858896255	200
107	2	0	1	0	2	0.426306009292603	2	1	316.448489904404	300
108	2	0	0	0	1	0.538074016571045	1	1	319.264271974564	200
109	2	0	0	0	2	0.638572931289673	2	1	321.98003411293	300
110	2	0	1	0	1	0.558538913726807	1	1	324.795831918716	400
111	2	0	0	0	1	0.525198936462402	1	1	327.711620092392	400
112	2	0	0	0	2	0.406601905822754	2	1	330.627338886261	500
113	2	0	0	0	1	0.624151945114136	1	1	333.643069982529	200
114	2	0	0	0	2	0.548691034317017	2	1	336.358756065369	500
115	2	1	0	0	2	0.659609079360962	2	1	339.374547958374	200
116	2	0	0	0	1	0.575349092483521	1	1	342.090209007263	400
117	2	0	0	0	2	0.671296119689941	2	1	345.006053924561	500
118	2	0	0	0	2	0.693855047225952	2	1	348.021759033203	200
119	2	0	0	0	2	0.473546981811523	2	1	350.737451076508	500
120	2	0	0	0	1	0.49800705909729	1	1	353.753256082535	400
121	3	0	0	0	1	0.536357164382935	1	1	371.6471118927	500
122	3	0	0	0	1	0.40458607673645	1	1	374.663171052933	300
123	3	0	0	0	1	0.533322095870972	1	1	377.478871107101	100
124	3	1	0	0	2	0.45921516418457	2	1	380.094592094421	200
125	3	0	0	0	2	0.41556191444397	2	1	382.810440063477	400
126	3	0	0	0	2	0.447422027587891	2	1	385.726207017899	200
127	3	1	0	0	2	0.497203826904297	2	1	388.441977977753	500
128	3	0	0	0	2	0.444869995117188	2	1	391.457746982574	500
129	3	0	0	0	2	0.440155029296875	2	1	394.473396062851	500
130	3	1	0	0	1	0.635197162628174	1	1	397.489140987396	200
131	3	0	0	0	1	0.510617017745972	1	1	400.204897880554	400
132	3	1	0	0	2	0.507575988769531	2	1	403.120627880096	400
133	3	0	0	0	2	0.53736686706543	2	1	406.036364078522	200
134	3	0	0	0	1	0.494864940643311	1	1	408.75214099884	400
135	3	0	0	0	1	0.520192861557007	1	1	411.667850017548	300
136	3	0	0	0	1	0.50946307182312	1	1	414.483596086502	100
137	3	0	0	0	2	0.464844226837158	2	1	417.099338054657	100
138	3	0	0	0	1	0.505953073501587	1	1	419.715162038803	400
139	3	0	0	0	2	0.524426937103271	2	1	422.630995988846	300
140	3	0	0	0	2	0.565056800842285	2	1	425.446713924408	300
141	3	0	1	0	1	0.565280914306641	1	1	428.262443065643	200
142	3	0	0	0	1	0.474478006362915	1	1	430.978213071823	500
143	3	0	0	0	2	0.659571170806885	2	1	433.994021892548	200
144	3	0	1	0	2	0.630306005477905	2	1	436.709696054459	300
145	3	0	0	0	2	0.518462896347046	2	1	439.525504112244	100
146	3	0	0	0	2	0.47902512550354	2	1	442.141248941422	200
147	3	0	0	0	1	0.742648839950562	1	1	444.857023000717	300
148	3	0	0	0	2	0.628106832504272	2	1	447.672996044159	300
149	3	0	0	0	2	0.457755088806152	2	1	450.488620042801	400
150	3	0	0	0	1	0.592440843582153	1	1	453.404392957687	400
151	3	0	0	0	1	0.475632190704346	1	1	456.320111036301	300
152	3	0	0	0	2	0.510618925094604	2	1	459.135849952698	400
153	3	0	0	0	2	0.520393133163452	2	1	462.05157995224	300
154	3	0	0	0	1	0.56972599029541	1	1	464.867333889008	100
155	3	0	1	0	2	0.512170076370239	2	1	467.483088970184	400
156	3	0	0	0	2	0.491012096405029	2	1	470.398915052414	300
157	3	0	0	0	1	0.574114084243774	1	1	473.214636087418	500
158	3	0	0	0	1	0.486528158187866	1	1	476.230470895767	500
159	3	0	0	0	1	0.478456020355225	1	1	479.246089935303	500
160	3	0	1	0	1	0.572688102722168	1	1	482.261739969254	200
161	3	0	0	0	1	0.588429927825928	1	1	484.977439880371	400
162	3	0	0	0	2	0.454759836196899	2	1	487.893260002136	500
163	3	0	0	0	2	0.528157949447632	2	1	490.909096002579	100
164	3	0	0	0	1	0.53759503364563	1	1	493.524681091309	200
165	3	0	1	0	2	0.50715708732605	2	1	496.240487098694	100
166	3	0	0	0	1	0.483844995498657	1	1	498.856271982193	200
167	3	0	0	0	2	0.474480867385864	2	1	501.572073936462	100
168	3	0	0	0	2	0.432829141616821	2	1	504.187845945358	300
169	3	0	0	0	1	0.480115175247192	1	1	507.003715991974	100
170	3	1	0	0	1	0.616686105728149	1	1	509.619476079941	200
171	3	0	0	0	2	0.413540840148926	2	1	512.335299968719	400
172	3	0	0	0	2	0.473504066467285	2	1	515.251080036163	400
173	3	0	1	0	1	0.538457155227661	1	1	518.166794061661	500
174	3	0	0	0	1	0.586908102035522	1	1	521.182494878769	500
175	3	0	0	0	1	0.566448926925659	1	1	524.198227882385	300
176	3	0	0	0	2	0.519901037216187	2	1	527.013921976089	200
177	3	0	0	0	1	0.635138988494873	1	1	529.729671001434	100
178	3	1	0	0	1	0.579155921936035	1	1	532.345485925674	100
179	3	0	0	0	2	0.459190130233765	2	1	534.96128988266	500
180	3	0	0	0	1	0.564013957977295	1	1	537.977121114731	100
181	4	0	0	0	1	0.53703784942627	1	1	554.521356105804	100
182	4	0	0	0	2	0.507295846939087	2	1	557.137423038483	400
183	4	1	0	0	2	0.43668007850647	2	1	560.053277015686	400
184	4	0	0	0	1	0.55475902557373	1	1	562.96905708313	200
185	4	0	1	0	2	0.440264940261841	2	1	565.684710025787	100
186	4	0	0	0	2	0.416167020797729	2	1	568.300527095795	200
187	4	1	0	0	1	0.506103992462158	1	1	571.016350984573	300
188	4	0	0	0	1	0.564851045608521	1	1	573.832118034363	200
189	4	0	0	0	1	0.457013845443726	1	1	576.547887086868	500
190	4	1	0	0	1	0.517681121826172	1	1	579.563683986664	500
191	4	0	0	0	2	0.464882135391235	2	1	582.57937002182	200
192	4	0	0	0	1	0.460917949676514	1	1	585.29505109787	500
193	4	1	0	0	2	0.502961158752441	2	1	588.310858011246	400
194	4	0	0	0	1	0.418532848358154	1	1	591.226490974426	500
195	4	0	0	0	1	0.473710060119629	1	1	594.242271900177	400
196	4	0	1	0	1	0.519006013870239	1	1	597.157968044281	300
197	4	0	0	0	2	0.56853199005127	2	1	599.973682880402	100
198	4	0	0	0	2	0.484400033950806	2	1	602.589438915253	300
199	4	1	0	0	2	0.448522090911865	2	1	605.405234098434	300
200	4	0	0	0	2	0.544348001480103	2	1	608.221004009247	300
201	4	0	0	0	1	0.448565006256104	1	1	611.036766052246	500
202	4	0	0	0	2	0.457046031951904	2	1	614.052526950836	400
203	4	0	0	0	2	0.517347097396851	2	1	616.968195915222	100
204	4	0	0	0	2	0.445657014846802	2	1	619.583941936493	300
205	4	0	0	0	2	0.484179019927979	2	1	622.399827003479	500
206	4	0	1	0	1	0.502590894699097	1	1	625.415514945984	400
207	4	0	0	0	1	0.483231067657471	1	1	628.331176042557	300
208	4	0	1	0	1	0.610697984695435	1	1	631.146934986115	100
209	4	0	0	0	1	0.604973077774048	1	1	633.76269698143	400
210	4	0	0	0	2	0.582266807556152	2	1	636.678524017334	300
211	4	0	0	0	2	0.487529039382935	2	1	639.494229078293	100
212	4	1	0	0	1	0.66037917137146	1	1	642.1099588871	500
213	4	0	0	0	1	0.553804874420166	1	1	645.125802993774	200
214	4	0	0	0	1	0.524706125259399	1	1	647.841490983963	200
215	4	0	0	0	2	0.482435941696167	2	1	650.557250022888	400
216	4	0	0	0	2	0.490386009216309	2	1	653.473102092743	500
217	4	0	0	0	2	0.597447872161865	2	1	656.488799095154	200
218	4	0	0	0	1	0.619874000549316	1	1	659.204530954361	200
219	4	0	0	0	1	0.60591983795166	1	1	661.920273065567	300
220	4	0	0	0	1	0.735077142715454	1	1	664.736062049866	200
221	4	0	0	0	1	0.641958951950073	1	1	667.451855897903	200
222	4	0	0	0	2	0.423049926757812	2	1	670.167607069016	400
223	4	0	0	0	2	0.575918912887573	2	1	673.083409070969	100
224	4	0	0	0	2	0.459311008453369	2	1	675.699110984802	500
225	4	0	1	0	2	0.547255992889404	2	1	678.714921951294	100
226	4	0	0	0	1	0.592698812484741	1	1	681.330640077591	500
227	4	0	0	0	2	0.628552913665771	2	1	684.346477985382	200
228	4	0	0	0	1	0.489467859268188	1	1	687.062139034271	200
229	4	0	0	0	2	0.429325103759766	2	1	689.778007030487	100
230	4	0	0	0	1	0.500494003295898	1	1	692.393747091293	500
231	4	0	0	0	2	0.573100805282593	2	1	695.409550905228	100
232	4	0	0	0	1	0.722162008285522	1	1	698.025224924088	300
233	4	0	0	0	2	0.743147134780884	2	1	700.841095924377	400
234	4	0	0	0	2	0.674501180648804	2	1	703.756902933121	100
235	4	0	0	0	1	0.624045848846436	1	1	706.37252497673	300
236	4	0	0	0	1	0.616024971008301	1	1	709.188366889954	400
237	4	0	0	0	2	0.508939981460571	2	1	712.104120016098	300
238	4	0	0	0	1	0.600898027420044	1	1	714.919836997986	500
239	4	0	1	0	2	0.703371047973633	2	1	717.935575962067	100
240	4	0	0	0	1	0.597007036209106	1	1	720.551287889481	400
