TrialNum	Block	Odd: Visual	Odd: Audio	Odd: Haptic	CueDirection	RT	RespDirection	Acc	TrialTime	ITI
1	1	0	0	0	2	0.422689394792542	2	1	0.000185744080226868	200
2	1	0	0	0	1	0.488854712835746	1	1	2.71509358420735	300
3	1	0	0	0	1	0.548051258956548	1	1	5.52999205695232	100
4	1	0	0	0	2	0.359995149483439	2	1	8.14550980497734	500
5	1	0	0	0	2	0.384086703677895	2	1	11.161911746196	200
6	1	0	0	0	1	0.440922792069614	2	2	13.8769738918636	500
7	1	1	0	0	1	0.45305903517874	1	1	16.892549769138	400
8	1	0	0	0	2	0.608761025971035	2	1	19.8082315750653	200
9	1	0	0	0	2	0.508647526381537	2	1	22.5243472330039	500
10	1	0	1	0	2	0.56370124136447	2	1	25.5400286539807	400
11	1	0	0	0	1	0.665119120007148	1	1	28.4551496988279	400
12	1	0	0	0	1	0.559616154554533	1	1	31.3707907629432	500
13	1	0	0	0	2	0.413241468602791	2	1	34.3869418373797	500
14	1	1	0	0	1	0.524949056707555	1	1	37.4023537850589	100
15	1	0	0	0	1	0.560924383229576	1	1	40.0175690172182	500
16	1	0	0	0	2	0.442234549554996	2	1	43.0335930542496	400
17	1	0	1	0	2	0.57261150420527	2	1	45.9489206952858	100
18	1	0	0	0	2	0.380175491271075	2	1	48.5645112652564	300
19	1	0	0	0	1	0.485182176780654	1	1	51.380600553297	400
20	1	0	0	0	1	0.469798138830811	1	1	54.295916966279	200
21	1	0	0	0	2	0.479583227453986	2	1	57.0115244745684	200
22	1	0	0	0	1	0.521758685383247	1	1	59.7272118624533	100
23	1	0	1	0	2	0.585757630586158	2	1	62.3434456395335	300
24	1	0	0	0	2	0.434151954716071	2	1	65.1586530441418	300
25	1	0	0	0	1	0.455796113936231	1	1	67.9748299110215	500
26	1	0	0	0	2	0.479631989292102	2	1	70.9905908907531	100
27	1	1	0	0	2	0.386164214462042	2	1	73.6061804983183	500
28	1	0	0	0	2	0.497065949079115	2	1	76.6212963461876	300
29	1	1	0	0	2	0.5062569132715	2	1	79.437234215904	200
30	1	0	0	0	2	0.409931438305648	2	1	82.1523990180867	400
31	1	0	0	0	1	0.425085782335373	2	2	85.0682267887169	100
32	1	0	0	0	1	0.391015054599848	1	1	87.6838359651738	400
33	1	0	1	0	1	0.497661677538417	1	1	90.6001943415613	100
34	1	0	0	0	2	0.508906413218938	2	1	93.2151949575054	400
35	1	0	0	0	2	0.472539067210164	2	1	96.1312370235682	500
36	1	0	0	0	1	0.540815259359078	1	1	99.1469255021657	100
37	1	0	0	0	2	0.546327271469636	2	1	101.762150679191	200
38	1	0	0	0	2	0.401805214438355	2	1	104.477737335372	100
39	1	0	0	0	1	0.482251333887689	1	1	107.094017628668	100
40	1	0	0	0	1	0.480902042618254	1	1	109.709289963532	300
41	1	1	0	0	2	0.537098452710779	2	1	112.525022199465	200
42	1	0	0	0	1	0.486697643238585	1	1	115.241069526674	300
43	1	0	0	0	2	0.505971399892587	2	1	118.056256079173	100
44	1	0	0	0	1	0.421407471847488	2	2	120.672369234875	400
45	1	0	1	0	1	0.424234695849009	1	1	123.588098519424	300
46	1	0	0	0	1	0.566456926608225	1	1	126.403893632465	300
47	1	0	0	0	2	0.580392866395414	2	1	129.219052916829	500
48	1	0	0	0	1	0.529306504060514	1	1	132.23529926932	400
49	1	0	0	0	1	0.471327720588306	1	1	135.15030354241	200
50	1	0	0	0	2	0.460292147530708	2	1	137.866329696699	300
51	1	0	0	0	1	0.48720996332122	1	1	140.681623396929	100
52	1	0	0	0	2	0.444985101989005	2	1	143.297288072063	300
53	1	1	0	0	1	0.440053419850301	1	1	146.11343831243	400
54	1	0	0	0	1	0.385629759082804	1	1	149.029196469113	200
55	1	0	0	0	2	0.588723440829199	2	1	151.744293902972	500
56	1	0	1	0	1	0.428429496794706	1	1	154.759965058271	500
57	1	0	0	0	1	0.667089162307093	1	1	157.775571732491	300
58	1	0	0	0	1	0.462003623775672	1	1	160.591172439803	200
59	1	0	0	0	2	0.460922522557667	2	1	163.306846995605	400
60	1	0	0	0	2	0.448472214746289	2	1	166.222523347911	200
61	2	0	0	0	2	0.570079417637317	2	1	176.503578862001	300
62	2	0	0	0	1	0.43738370941719	1	1	179.317789857014	100
63	2	0	1	0	1	0.457306447584415	1	1	181.933824095526	200
64	2	0	0	0	2	0.448227122338722	2	1	184.649608686275	500
65	2	0	0	0	2	0.439322633959819	2	1	187.665353305143	100
66	2	0	0	0	2	0.447527774987975	2	1	190.280894471682	100
67	2	0	0	0	1	0.514694956218591	1	1	192.896685863408	300
68	2	1	0	0	1	0.471405354590388	1	1	195.711937538639	300
69	2	0	0	0	1	0.441398540744558	1	1	198.527576742141	500
70	2	0	1	0	2	0.247339271998499	1	2	201.543834964279	100
71	2	0	0	0	1	0.457790857937653	1	1	204.159265133465	400
72	2	0	0	0	2	0.452061983989552	2	1	207.075090658502	400
73	2	0	0	0	2	0.436904431931907	2	1	209.990705737728	500
74	2	0	0	0	2	0.421520073199645	2	1	213.006379138649	100
75	2	0	0	0	1	0.626013732864521	1	1	215.621381037781	200
76	2	0	0	0	1	0.575610677828081	1	1	218.33710756345	400
77	2	0	0	0	1	0.415680201898795	1	1	221.253116586973	500
78	2	0	0	0	1	0.437846305256244	1	1	224.268436464597	500
79	2	1	0	0	1	0.491317827079911	1	1	227.284404040547	200
80	2	0	0	0	2	0.508111787814414	2	1	229.999667649594	300
81	2	0	0	0	1	0.56307792395819	1	1	232.815880767041	500
82	2	0	0	0	2	0.503834220027784	2	1	235.831575340882	400
83	2	0	0	0	1	0.462174290179973	1	1	238.746579293133	500
84	2	1	0	0	1	0.515588067733916	1	1	241.762186288164	200
85	2	0	0	0	1	0.38574011484161	1	1	244.477779681183	500
86	2	1	0	0	2	0.459778865071712	2	1	247.4939500037	300
87	2	0	0	0	2	0.46436055272352	2	1	250.309039674146	300
88	2	0	1	0	2	0.353377976076445	2	1	253.125235789106	100
89	2	0	0	0	2	0.441024806932546	2	1	255.740372424916	300
90	2	0	0	0	1	0.438209773419658	1	1	258.55610305685	100
91	2	0	1	0	2	0.375687477702741	2	1	261.172321756225	300
92	2	0	0	0	1	0.37738259305479	1	1	263.987338283943	400
93	2	0	0	0	2	0.494736609078245	2	1	266.903645973682	400
94	2	0	0	0	2	0.457973714801483	2	1	269.818769584934	200
95	2	0	0	0	1	0.582214377558557	1	1	272.534385754843	300
96	2	0	0	0	2	0.496078201133059	2	1	275.350077248993	200
97	2	0	0	0	1	0.469213959237095	1	1	278.065597178473	200
98	2	0	0	0	1	0.433081760740606	1	1	280.781771543087	400
99	2	1	0	0	2	0.438948900147807	2	1	283.697580386448	200
100	2	0	0	0	2	0.444502937258221	2	1	286.412775023142	100
101	2	0	0	0	2	0.368241032323567	2	1	289.028443227086	100
102	2	0	0	0	2	0.390558233164484	2	1	291.64455509957	200
103	2	0	0	0	1	0.447127093852032	1	1	294.359884793725	200
104	2	0	1	0	1	0.292082425468834	2	2	297.075860582205	400
105	2	0	0	0	1	0.487620910105761	1	1	299.991291521321	400
106	2	1	0	0	2	0.427699994121213	2	1	302.906918149383	200
107	2	0	0	0	1	0.501950473379111	1	1	305.62292826362	300
108	2	0	0	0	2	0.410997461818624	2	1	308.438232229499	500
109	2	0	0	0	2	0.456395692046499	2	1	311.453900176799	500
110	2	0	0	0	2	0.455143924395088	2	1	314.469467071642	500
111	2	0	0	0	2	0.440157038770849	2	1	317.485419890698	100
112	2	0	0	0	2	0.427175162767526	2	1	320.100930581102	400
113	2	0	0	0	1	0.209463196370052	1	1	323.016883143544	300
114	2	0	0	0	1	0.460303375613876	1	1	325.832537745504	300
115	2	0	0	0	1	0.409901924547739	1	1	328.647680027381	100
116	2	0	1	0	1	0.375395548297092	2	2	331.263653634407	200
117	2	0	0	0	2	0.375022456108127	2	1	333.979584510671	400
118	2	0	0	0	1	0.426377329364186	2	2	336.89466898411	100
119	2	0	0	0	2	0.601885928103002	2	1	339.510375684244	400
120	2	0	0	0	1	0.474916206643684	1	1	342.426097911171	500
121	3	0	0	0	2	0.434678390040062	2	1	356.155479033681	400
122	3	0	0	0	2	0.40295945838443	2	1	359.070722303906	400
123	3	0	0	0	1	0.427446881658398	1	1	361.985774376401	500
124	3	0	0	0	1	0.549275758414296	1	1	365.00192416762	300
125	3	0	0	0	1	0.361699888890143	1	1	367.81729325623	500
126	3	1	0	0	1	0.504232976352796	1	1	370.833024401421	400
127	3	0	0	0	2	0.471419790643267	2	1	373.748216985026	200
128	3	0	0	0	1	0.34713934850879	1	1	376.463845987018	200
129	3	0	0	0	2	0.482691152807092	2	1	379.179523430037	300
130	3	0	1	0	2	0.314846823661355	2	1	381.995605339675	100
131	3	0	0	0	2	0.381436562136514	2	1	384.610895639402	200
132	3	0	0	0	2	0.352113697212189	2	1	387.326631789096	200
133	3	1	0	0	1	0.53136829554569	1	1	390.042184119549	200
134	3	0	0	0	1	0.429854176472872	1	1	392.758344048081	500
135	3	0	0	0	2	0.570531106204726	2	1	395.773696968274	300
136	3	0	0	0	2	0.444203308637952	2	1	398.589306658017	500
137	3	0	0	0	2	0.53400207622326	2	1	401.604949903616	100
138	3	0	1	0	1	0.422602778417058	1	1	404.221138126857	400
139	3	0	0	0	1	0.0807807154778857	2	2	407.136129888677	200
140	3	0	0	0	2	0.491635420592502	2	1	409.851769797941	400
141	3	0	0	0	1	0.528235347708687	1	1	412.768053748354	200
142	3	0	0	0	1	0.555755628767656	1	1	415.483701998455	400
143	3	0	1	0	1	0.3199350569339	2	2	418.398905168491	500
144	3	0	0	0	2	0	0	99	421.414820132981	300
145	3	0	1	0	2	0.467159225343494	2	1	424.681721883011	100
146	3	0	0	0	2	0.136057708354201	2	1	427.295609638415	400
147	3	0	0	0	2	0.422188944387017	2	1	430.211929839395	300
148	3	0	0	0	2	0.337845086207381	2	1	433.02748531368	300
149	3	0	0	0	1	0.500360901729437	1	1	435.842634653236	500
150	3	0	0	0	1	0.14536351946299	2	2	438.858277257212	400
151	3	0	0	0	1	0.383826212841086	1	1	441.773717820382	100
152	3	0	0	0	1	0.271812900842633	2	2	444.38948130238	300
153	3	0	0	0	1	0.405149891303154	1	1	447.205594008963	500
154	3	1	0	0	1	0.407999571412802	1	1	450.220771129912	400
155	3	0	0	0	1	0.39946272157249	1	1	453.13706983719	200
156	3	1	0	0	2	0.457960241154069	2	1	455.852618318022	500
157	3	0	0	0	2	0.487169863132294	2	1	458.867786456511	500
158	3	0	0	0	2	0.596796411642572	2	1	461.883839365677	100
159	3	0	0	0	1	0.552764154388569	1	1	464.498943600513	500
160	3	0	0	0	2	0.437795618607197	2	1	467.515171025705	200
161	3	0	0	0	1	0.47425343064242	1	1	470.230757040292	500
162	3	0	0	0	1	0.290467510494636	2	2	473.245827013539	100
163	3	0	0	0	2	0.496899453108199	2	1	475.86183462551	400
164	3	0	0	0	2	0.397628699167399	2	1	478.77789722287	300
165	3	0	0	0	2	0.320044771069661	2	1	481.593298712425	100
166	3	0	0	0	1	0.45434384534019	1	1	484.209099728207	100
167	3	0	0	0	1	0.452761010557879	1	1	486.8248590398	200
168	3	1	0	0	2	0.415686938737053	2	1	489.540463660873	300
169	3	0	0	0	1	0.384699755406473	1	1	492.356346352724	400
170	3	0	0	0	1	0.467377691209549	1	1	495.271874173923	200
171	3	0	0	0	1	0.385753588489024	1	1	497.987570865051	100
172	3	1	0	0	2	0.340483358100755	2	1	500.602670929453	100
173	3	0	0	0	2	0.388879799487768	2	1	503.218423183425	100
174	3	0	0	0	1	0.464936712291092	1	1	505.834127317125	400
175	3	0	1	0	2	0.271494986489415	2	1	508.750323688728	300
176	3	0	0	0	2	0.355721752130194	2	1	511.566080305609	500
177	3	0	0	0	2	0.414703682035906	2	1	514.581175622152	100
178	3	0	1	0	1	0.329726561612915	1	1	517.196609961771	300
179	3	0	0	0	1	0.522765360627091	1	1	520.012815059192	300
180	3	0	0	0	2	0.40709041984519	2	1	522.828552427934	200
181	4	0	0	0	2	0.612983415834606	2	1	535.609027612023	100
182	4	1	0	0	2	0.500916529999813	2	1	538.222906384966	300
183	4	0	0	0	2	0.378620245406637	2	1	541.03829696725	500
184	4	0	0	0	1	0.458794325153576	1	1	544.053800022579	300
185	4	0	0	0	2	0.40520923960139	2	1	546.869865571294	300
186	4	1	0	0	1	0.424751827929867	1	1	549.685206108552	500
187	4	0	0	0	2	0.320903235988226	2	1	552.701351408556	400
188	4	1	0	0	2	0.421496333874529	2	1	555.616341566376	400
189	4	0	0	0	2	0.229204360832227	2	1	558.532389727654	200
190	4	0	0	0	2	0.37574746759492	2	1	561.248299431027	200
191	4	0	0	0	1	0.404213150817668	1	1	563.963907260098	500
192	4	0	0	0	2	0.273014302598312	2	1	566.979632310104	400
193	4	0	0	0	1	0.446941670554224	1	1	569.894673796138	400
194	4	0	0	0	1	0.435637265851256	2	2	572.810907380743	500
195	4	0	0	0	2	0.458607939450303	2	1	575.826333122881	200
196	4	0	0	0	2	0.535246786195785	2	1	578.541504982684	200
197	4	1	0	0	2	0.444756691285875	2	1	581.257790986245	100
198	4	0	0	0	1	0.408147140115034	2	2	583.873466247809	100
199	4	0	0	0	1	0.448768314585323	1	1	586.488502793538	400
200	4	0	0	0	2	0.535283678385895	2	1	589.404796368006	200
201	4	0	0	0	1	0.396049713977845	1	1	592.119834132754	100
202	4	0	0	0	2	0.415036994847469	2	1	594.736270656402	300
203	4	0	0	0	2	6.48019195068628e-05	2	1	597.551387594984	200
204	4	0	1	0	1	0.319656601175666	2	2	600.267048997921	100
205	4	0	0	0	1	0.529265441437019	1	1	602.883266093326	400
206	4	0	0	0	1	0.441656785988016	1	1	605.798466376145	500
207	4	0	0	0	1	0.919435825577239	1	1	608.814077862364	100
208	4	0	0	0	1	0.529948748735478	1	1	611.429694738064	500
209	4	0	0	0	1	0.409108903142624	1	1	614.445780689799	100
210	4	0	0	0	1	0.556972749822307	1	1	617.061419059202	400
211	4	0	0	0	1	0.463114880316425	1	1	619.977238488995	300
212	4	0	1	0	2	0.513917974894866	2	1	622.792367297225	200
213	4	0	0	0	2	0.467396297695814	2	1	625.508576308406	500
214	4	0	0	0	2	0.527364050736651	2	1	628.523713329167	200
215	4	0	0	0	1	0.418392899766332	2	2	631.239287474105	400
216	4	0	0	0	2	0.681693331687711	2	1	634.155393700465	300
217	4	0	0	0	2	0.476218660915038	2	1	636.970595972263	200
218	4	0	1	0	1	0.368019679241115	1	1	639.686674417229	300
219	4	0	0	0	2	0.465489453315968	2	1	642.502398633107	200
220	4	0	1	0	1	0.238028007239336	2	2	645.217625349993	300
221	4	0	0	0	1	0.541747829469386	1	1	648.033897174115	400
222	4	0	0	0	2	0.464762837858871	2	1	650.949328754854	300
223	4	0	1	0	2	0.46704117039917	2	1	653.764471999137	200
224	4	0	0	0	1	0.452327928476734	1	1	656.480232529779	400
225	4	0	0	0	2	0.410166585817933	2	1	659.396517121815	300
226	4	0	1	0	2	0.400660594546935	2	1	662.211991433316	200
227	4	0	0	0	1	0.527680681843776	1	1	664.927792384929	500
228	4	0	0	0	1	0.457741775288014	1	1	667.943308272312	400
229	4	0	0	0	2	0.413065990171162	2	1	670.85903916086	400
230	4	0	0	0	1	0.421866218035575	1	1	673.774110160681	100
231	4	0	0	0	1	0.425970232172403	1	1	676.390374093084	300
232	4	0	0	0	1	0.471731288940646	1	1	679.205478841206	100
233	4	0	0	0	2	0.553122489713132	2	1	681.821567295177	500
234	4	0	0	0	2	0.401335560978623	2	1	684.836874019937	300
235	4	0	0	0	2	0.583907888911199	2	1	687.652978706465	100
236	4	1	0	0	1	0.457475830800831	2	2	690.268660063273	500
237	4	0	0	0	2	0.547698056441732	2	1	693.284416872601	100
238	4	0	0	0	1	0.458225544018205	1	1	695.899898049247	500
239	4	0	0	0	1	0.475808676535962	1	1	698.915695921198	500
240	4	1	0	0	1	0.503247153188568	1	1	701.930755307956	100
