TrialNum	Block	Odd: Visual	Odd: Audio	Odd: Haptic	CueDirection	RT	RespDirection	Acc	TrialTime	ITI
1	1	0	0	0	2	0.392426260514185	2	1	0.00019536807667464	300
2	1	0	0	0	2	0.408407310140319	2	1	2.81452345568687	200
3	1	0	0	0	1	0.399559924495406	1	1	5.52938189241104	300
4	1	0	0	0	2	0.409486807300709	2	1	8.3453200829681	200
5	1	0	0	0	2	0.352566989837214	2	1	11.0603716421174	400
6	1	0	0	0	2	0.508083557360806	2	1	13.9762128865113	100
7	1	0	0	0	1	0.364882561028935	1	1	16.5922862627776	500
8	1	0	0	0	1	0.425417491118424	1	1	19.6074723661877	300
9	1	0	0	0	2	0.396086285356432	2	1	22.423737132689	500
10	1	1	0	0	2	0.455000205314718	2	1	25.4396639667684	200
11	1	0	0	0	1	0.356599785969593	1	1	28.1543988948688	500
12	1	0	1	0	1	0.493131959810853	1	1	31.1699510328472	100
13	1	0	0	0	2	0.428506489261054	2	1	33.7856740938732	300
14	1	0	0	0	2	0.441400465555489	2	1	36.6017877628328	500
15	1	0	0	0	1	0.34213965642266	1	1	39.6170547081856	500
16	1	1	0	0	1	0.57655543833971	1	1	42.6330165097024	300
17	1	0	0	0	2	0.365880895406008	2	1	45.4486261995044	300
18	1	0	1	0	2	0.477121396339498	2	1	48.2644505054923	400
19	1	0	0	0	1	0.330734199262224	1	1	51.17940633744	200
20	1	0	0	0	2	0.42003251647111	2	1	53.8956204814604	500
21	1	1	0	0	2	0.487642083084211	2	1	56.9108867852483	200
22	1	0	0	0	1	0.338125466834754	1	1	59.6268166991649	200
23	1	1	0	0	2	0.405570462229662	2	1	62.342171415803	100
24	1	0	0	0	1	0.343691694317386	1	1	64.9584619747475	300
25	1	0	0	0	2	0.416578125441447	2	1	67.7735362467356	200
26	1	0	0	0	1	0.332189996610396	1	1	70.4895941603463	200
27	1	0	0	0	2	0.359615320456214	2	1	73.2051580396947	500
28	1	0	0	0	1	0.331121406750754	1	1	76.2211278611794	400
29	1	0	1	0	1	0.417543096467853	1	1	79.1364571062149	100
30	1	0	0	0	1	0.434012726764195	1	1	81.7521824128926	200
31	1	0	0	0	2	0.508274113410152	2	1	84.468082812964	400
32	1	0	0	0	1	0.392201699432917	1	1	87.3832975318655	300
33	1	0	0	0	2	0.30670616379939	2	1	90.1988744998816	100
34	1	0	0	0	1	0.303703140583821	1	1	92.8145266637439	100
35	1	0	0	0	1	0.429339289898053	1	1	95.430141293793	100
36	1	0	1	0	1	0.416911758948117	1	1	98.0464081134414	300
37	1	0	0	0	2	0.534723238088191	2	1	100.861731969053	500
38	1	0	0	0	1	0.345692212693393	1	1	103.877380989026	400
39	1	0	0	0	2	0.38229406462051	2	1	106.793373010121	100
40	1	0	0	0	1	0.327451437129639	1	1	109.409025494708	100
41	1	0	0	0	2	0.319158075610176	2	1	112.024795392761	100
42	1	0	0	0	1	0.368171097477898	1	1	114.640481240815	400
43	1	0	0	0	2	0.985164853511378	2	1	117.555797653738	400
44	1	0	0	0	1	0.334412509691902	1	1	120.471295640455	200
45	1	0	0	0	1	0.435496754827909	1	1	123.18730896269	400
46	1	0	0	0	2	0.288011453929357	2	1	126.10321885848	500
47	1	0	0	0	2	0.427079563960433	2	1	129.118216009811	400
48	1	0	0	0	2	0.421184835606255	2	1	132.034287268762	300
49	1	0	0	0	1	0.408434899058193	1	1	134.849954382051	200
50	1	0	0	0	1	0.374713524244726	1	1	137.565219595097	500
51	1	0	0	0	2	0.356639565434307	2	1	140.580907432013	400
52	1	0	1	0	2	0.436897374340333	2	1	143.496875072131	300
53	1	0	0	0	2	0.480998924700543	2	1	146.312124501797	200
54	1	1	0	0	1	0.464624251588248	1	1	149.028291167226	400
55	1	0	0	0	1	0.402510015410371	1	1	151.944053494255	500
56	1	1	0	0	1	0.372116956510581	1	1	154.959093632991	400
57	1	0	0	0	1	0.419343434739858	1	1	157.875209804159	300
58	1	0	0	0	2	0.648347615380771	2	1	160.690702401334	100
59	1	0	1	0	2	0.412692577228881	2	1	163.306490905932	100
60	1	0	0	0	1	0.371591804432683	1	1	165.922087891959	500
61	2	0	1	0	2	0.407645727274939	2	1	179.617788381292	300
62	2	0	0	0	2	0.421612464007922	2	1	182.432879976579	400
63	2	0	1	0	2	0.354300922132097	2	1	185.348742393777	500
64	2	0	0	0	2	0.2864574912237	2	1	188.363656457514	100
65	2	0	0	0	1	0.591365562402643	1	1	190.979917181889	200
66	2	0	0	0	1	0.439680969226174	1	1	193.695121442666	200
67	2	1	0	0	2	0.377241761190817	2	1	196.411282654386	500
68	2	0	0	0	2	0.433113199309446	2	1	199.426515273983	400
69	2	0	0	0	1	0.329123133909889	1	1	202.342719344888	300
70	2	0	0	0	1	0.417211708496325	1	1	205.157561998116	500
71	2	0	0	0	1	0.415916311903857	1	1	208.173896891763	100
72	2	0	1	0	1	0.465358566259965	1	1	210.788952364819	500
73	2	0	0	0	2	0.355978714185767	2	1	213.805163108278	300
74	2	0	0	0	1	0.358508555102162	1	1	216.620268818806	500
75	2	0	0	0	1	0.393388344324194	1	1	219.635943182162	100
76	2	0	0	0	1	0.371055103372782	1	1	222.251955285436	400
77	2	0	0	0	2	0.498468172620051	2	1	225.16710359836	200
78	2	0	0	0	1	0.345933134667575	1	1	227.883379657054	200
79	2	0	1	0	1	0.3991245967336	1	1	230.599056779291	100
80	2	0	0	0	1	0.378985317540355	1	1	233.214579660096	300
81	2	0	0	0	1	0.349393300130032	1	1	236.03020378598	100
82	2	1	0	0	2	0.557345200330019	2	1	238.646223588381	500
83	2	0	0	0	1	0.361018506344408	1	1	241.661289712065	100
84	2	0	0	0	2	0.377958110999316	2	1	244.276945083868	300
85	2	0	0	0	2	0.433314662659541	2	1	247.092706191936	400
86	2	0	0	0	2	0.384281109436415	2	1	250.008666774491	300
87	2	0	0	0	1	0.384803695138544	1	1	252.823846590123	300
88	2	0	0	0	1	0.389417783706449	1	1	255.640281381435	500
89	2	0	0	0	1	0.42608122958336	1	1	258.65528943995	400
90	2	1	0	0	1	0.421436023199931	1	1	261.570873080636	400
91	2	0	0	0	2	0.616684503271244	2	1	264.48650355835	200
92	2	0	0	0	2	0.49107145157177	2	1	267.202596118557	400
93	2	0	0	0	1	0.398912867764011	1	1	270.118349463213	100
94	2	0	0	0	2	0.331227912800387	2	1	272.733974679722	200
95	2	0	0	0	1	0.284635017742403	1	1	275.449166108505	500
96	2	0	0	0	1	0.509044678648934	1	1	278.464890516829	400
97	2	1	0	0	2	0.432680437923409	2	1	281.381003480055	100
98	2	0	0	0	1	0.394464954384603	1	1	283.996499413624	500
99	2	0	0	0	2	0.421342669986188	2	1	287.012193987379	500
100	2	0	0	0	2	0.591338294208981	2	1	290.027774035116	300
101	2	0	0	0	2	0.411107175983489	2	1	292.842985610128	300
102	2	0	0	0	1	0.494447566918097	1	1	295.658503871411	400
103	2	0	0	0	1	0.392516726511531	1	1	298.574637045152	100
104	2	0	0	0	2	0.41705804457888	2	1	301.189798061852	500
105	2	0	0	0	2	0.433437850442715	2	1	304.206134559587	400
106	2	0	1	0	2	0.471815018099733	2	1	307.121137228678	300
107	2	0	0	0	2	0.340639588423073	2	1	309.937077023205	200
108	2	0	0	0	1	0.381776291062124	1	1	312.652954004705	200
109	2	0	1	0	1	0.439355355803855	1	1	315.36820542335	200
110	2	0	0	0	2	0.449075321666896	2	1	318.084413792938	500
111	2	0	0	0	1	0.413535002036951	1	1	321.100002823048	300
112	2	1	0	0	1	0.418113481602632	1	1	323.915522046736	200
113	2	0	0	0	2	0.454021119046956	2	1	326.630854307325	200
114	2	0	0	0	2	0.507696349872276	2	1	329.346422036295	100
115	2	1	0	0	1	0.370186052168719	1	1	331.962550269556	400
116	2	0	0	0	2	0.35493963805493	2	1	334.87852079689	200
117	2	0	0	0	2	0.450087771285325	2	1	337.593900215346	100
118	2	0	0	0	1	0.417031418066472	1	1	340.209721120773	400
119	2	0	0	0	2	0.357273469213396	2	1	343.12489317311	300
120	2	0	0	0	2	0.410786053631455	2	1	345.94096642104	100
121	3	0	0	0	2	0.432710593333468	2	1	367.668270032736	400
122	3	0	0	0	2	0.354666315019131	2	1	370.5823670791	100
123	3	0	0	0	1	0.427420575870201	1	1	373.197320216452	200
124	3	0	0	0	2	0.342152809374966	2	1	375.913760204683	500
125	3	1	0	0	1	0.444297945126891	1	1	378.928895621444	300
126	3	0	0	0	2	0.376553962705657	2	1	381.744509802433	500
127	3	0	0	0	2	0.510327884810977	2	1	384.760119684623	500
128	3	1	0	0	2	0.343470020452514	2	1	387.775724754785	500
129	3	0	0	0	2	0.320728719932958	2	1	390.791790175252	200
130	3	0	0	0	1	0.355210394482128	1	1	393.506888571545	500
131	3	0	1	0	2	0.349622673238628	2	1	396.522574162926	400
132	3	0	0	0	2	0.386765396571718	2	1	399.438574203989	100
133	3	0	0	0	1	0.353846025536768	1	1	402.053822478745	300
134	3	0	0	0	1	0.442653195583262	1	1	404.870023726486	200
135	3	0	0	0	2	0.515595446224324	2	1	407.585188207799	200
136	3	0	0	0	1	0.352149947779253	1	1	410.301506291609	400
137	3	1	0	0	2	0.364751353161409	2	1	413.21702737594	200
138	3	0	0	0	2	0.407226439681835	2	1	415.93267883407	200
139	3	0	0	0	2	0.327375086257234	2	1	418.647893360467	300
140	3	0	0	0	2	0.364643884706311	2	1	421.463606348261	100
141	3	0	1	0	2	0.442404253641143	2	1	424.079814782017	200
142	3	0	0	0	1	0.4696156027494	1	1	426.795463994495	100
143	3	0	0	0	1	0.450382267124951	1	1	429.410676018684	100
144	3	0	1	0	1	0.42127433931455	1	1	432.02639009722	400
145	3	0	0	0	1	0.390340408892371	1	1	434.942108795396	100
146	3	0	0	0	1	0.350188888027333	1	1	437.558331344393	300
147	3	0	0	0	1	0.350432697101496	1	1	440.374037595349	300
148	3	0	1	0	2	0.338083120877855	2	1	443.189007606823	500
149	3	0	0	0	2	0.490881857811473	2	1	446.205203272635	300
150	3	0	0	0	2	0.351951050804928	2	1	449.020844400977	100
151	3	1	0	0	2	0.388296903111041	2	1	451.636613978189	500
152	3	0	0	0	2	0.350550431292504	2	1	454.652377524413	300
153	3	0	0	0	1	0.437597042531706	1	1	457.467818793375	500
154	3	1	0	0	1	0.41817218833603	1	1	460.483003292698	200
155	3	0	0	0	2	0.455263262498192	2	1	463.198442701017	400
156	3	0	0	0	1	0.436761675169691	1	1	466.114672756754	200
157	3	1	0	0	1	0.449690298177302	1	1	468.830498410156	200
158	3	0	0	0	1	0.411025050794706	1	1	471.545603864011	500
159	3	0	0	0	1	0.358440545154735	1	1	474.561717404635	200
160	3	0	0	0	1	0.358638158999383	1	1	477.27716130414	100
161	3	0	0	0	1	0.402849744306877	1	1	479.893031613086	100
162	3	0	1	0	1	0.548938275198452	1	1	482.508323837654	400
163	3	0	0	0	2	0.453012198093347	2	1	485.42438707652	300
164	3	0	0	0	1	0.34397560369689	1	1	488.239677247941	100
165	3	0	0	0	1	0.407227081363089	1	1	490.855942463619	500
166	3	0	0	0	2	0.356177290319465	2	1	493.871040667407	400
167	3	0	0	0	1	0.323724364745431	1	1	496.786633932032	100
168	3	0	0	0	1	0.431725732632913	1	1	499.402491408982	300
169	3	0	0	0	1	0.475404466618784	1	1	502.218396236072	100
170	3	0	0	0	2	0	0	99	504.833686856669	400
171	3	0	0	0	2	0.408801896031946	2	1	508.101414991426	500
172	3	0	0	0	2	0.445003066910431	2	1	511.114745257888	300
173	3	0	0	0	2	0.41116395778954	2	1	513.930784500903	500
174	3	0	0	0	2	0.312112632207572	2	1	516.946105661802	300
175	3	0	0	0	1	0.420436726417392	1	1	519.761712464271	400
176	3	0	0	0	2	0.340671989368275	2	1	522.677380154957	400
177	3	0	0	0	1	0.449193697422743	1	1	525.592984006158	400
178	3	0	0	0	1	0.409029985894449	1	1	528.509054623544	300
179	3	0	1	0	1	0.443901755148545	1	1	531.32464185718	400
180	3	0	0	0	2	0.385590942110866	2	1	534.240470590186	200
181	4	0	0	0	1	0.396161994547583	1	1	552.634738893248	100
182	4	0	0	0	1	0.427738169441	1	1	555.248779991758	500
183	4	0	0	0	2	0.458952801069245	2	1	558.265105582192	100
184	4	0	0	0	2	0.361315247719176	2	1	560.880232593976	500
185	4	1	0	0	1	0.386170309735462	1	1	563.89655850525	400
186	4	0	0	0	2	0.377525349729694	2	1	566.811566307093	400
187	4	0	0	0	2	0.437912390334532	2	1	569.727724503377	400
188	4	0	0	0	1	0.435054369387217	1	1	572.64337904111	500
189	4	0	0	0	1	0.420758490334265	1	1	575.658432974247	200
190	4	0	0	0	1	0.444551699096337	1	1	578.374628832564	300
191	4	0	0	0	1	0.47614551812876	1	1	581.189570613555	300
192	4	0	1	0	2	0.35900066467002	2	1	584.00581164076	400
193	4	0	0	0	2	0.458215278340504	2	1	586.921027001226	400
194	4	1	0	0	2	0.412735243677162	2	1	589.836493228562	500
195	4	0	0	0	2	0.359824162325822	2	1	592.85267927032	100
196	4	0	0	0	1	0.398825609707274	1	1	595.467853439855	500
197	4	0	0	0	1	0.358753005857579	1	1	598.484057125752	100
198	4	0	0	0	1	0.33781140204519	1	1	601.099164889427	100
199	4	0	0	0	2	0.416481243446469	2	1	603.715209393529	200
200	4	0	1	0	1	0.444737763958983	1	1	606.430614796933	500
201	4	0	0	0	2	0.446130684344098	2	1	609.446328618797	300
202	4	0	0	0	2	0.36277136602439	2	1	612.26231204241	300
203	4	0	0	0	2	0.335572848911397	2	1	615.078059355961	400
204	4	0	0	0	2	0.334148489986546	2	1	617.99322467146	300
205	4	0	0	0	1	0.385901478002779	1	1	620.809306581039	300
206	4	1	0	0	1	0.394942948594689	1	1	623.624397855485	300
207	4	0	0	0	1	0.412522552302107	1	1	626.440743143205	400
208	4	0	1	0	1	0.391111936653033	1	1	629.356163495802	400
209	4	0	0	0	1	0.385233248351142	1	1	632.272002815385	200
210	4	0	0	0	1	0.377182092168368	1	1	634.987052128999	200
211	4	0	1	0	2	0.541959237656556	2	1	637.703338774154	300
212	4	0	0	0	2	0.522956237546168	2	1	640.519038288272	400
213	4	0	0	0	2	0.427129608928226	2	1	643.43412981939	500
214	4	0	1	0	2	0.38016298005823	2	1	646.449722699123	500
215	4	0	0	0	1	0.451740540796891	1	1	649.465320711723	100
216	4	0	0	0	2	0.338899240130559	2	1	652.080766600207	400
217	4	0	0	0	2	0.464166467776522	2	1	654.997132675839	300
218	4	1	0	0	2	0.35084236075636	2	1	657.812633934664	200
219	4	0	0	0	2	0.340331298182718	2	1	660.528496800922	100
220	4	0	0	0	1	0.379490259219892	1	1	663.143476564786	300
221	4	1	0	0	2	0.36551486083772	2	1	665.959682945395	500
222	4	0	0	0	1	0.394588142167777	1	1	668.974998973426	100
223	4	0	0	0	1	0.462165949284099	1	1	671.591005622991	500
224	4	0	0	0	2	0.375792379840277	2	1	674.606679344783	200
225	4	0	0	0	1	0.400852754712105	1	1	677.322115545045	300
226	4	0	0	0	2	0.388048281893134	2	1	680.137586006895	100
227	4	1	0	0	1	0.414937225636095	1	1	682.753256777301	400
228	4	0	0	0	1	0.378567313193344	1	1	685.66950126912	200
229	4	0	0	0	1	0.310442539281212	1	1	688.384603194194	300
230	4	0	0	0	2	0.587131944485009	2	1	691.200601695338	100
231	4	0	1	0	1	0.349347425508313	1	1	693.816389558255	400
232	4	0	0	0	1	0.473938403534703	1	1	696.732017148752	500
233	4	0	0	0	2	0.365148505428806	2	1	699.747318419861	200
234	4	0	0	0	2	0.59882580221165	2	1	702.463366709533	100
235	4	0	0	0	2	0.383921811589971	2	1	705.079086241662	200
236	4	0	0	0	1	0.355537291266955	1	1	707.79432258266	100
237	4	0	0	0	2	0.328924878500402	2	1	710.410006826627	200
238	4	0	0	0	1	0.368257072404958	1	1	713.126069552382	500
239	4	0	0	0	1	0.475001860642806	1	1	716.141713439487	200
240	4	0	0	0	2	0.365776955732144	2	1	718.857406601892	200
