TrialNum	Block	Odd: Visual	Odd: Audio	Odd: Haptic	CueDirection	RT	RespDirection	Acc	TrialTime	ITI
1	1	0	0	0	2	0.399171113967896	2	1	2.09808349609375e-05	100
2	1	0	0	0	1	0.594505071640015	1	1	2.61615991592407	300
3	1	0	0	0	2	0.355704069137573	2	1	5.43187403678894	500
4	1	1	0	0	2	0	0	99	8.44766402244568	200
5	1	0	0	0	2	0.452203035354614	2	1	11.8438210487366	500
6	1	0	0	0	2	0.592998027801514	2	1	14.862163066864	400
7	1	0	0	0	1	0.425565004348755	1	1	17.7778339385986	300
8	1	1	0	0	1	0.487580060958862	2	2	20.593446969986	100
9	1	0	0	0	2	0.417979001998901	2	1	23.2091889381409	400
10	1	0	0	0	1	0.527931928634644	1	1	26.1249589920044	400
11	1	0	0	0	1	0.590246915817261	1	1	29.040668964386	200
12	1	0	1	0	2	0.718880176544189	2	1	31.7563529014587	200
13	1	0	0	0	2	0.612840890884399	2	1	34.4721109867096	100
14	1	0	0	0	1	0.472849130630493	1	1	37.087828874588	100
15	1	0	1	0	1	0.5172119140625	2	2	39.7036688327789	300
16	1	0	0	0	2	0.500790119171143	2	1	42.519464969635	400
17	1	0	0	0	1	0.832072019577026	1	1	45.4352688789368	400
18	1	1	0	0	2	0.411436080932617	2	1	48.3508930206299	300
19	1	0	0	0	2	0.460673093795776	1	2	51.1665630340576	500
20	1	0	0	0	2	0.436445951461792	2	1	54.1823098659515	200
21	1	0	0	0	1	0	0	99	56.8979659080505	500
22	1	0	0	0	2	0.552881956100464	2	1	60.6022698879242	300
23	1	0	1	0	2	0.531247138977051	2	1	63.4124839305878	500
24	1	0	0	0	2	0.607280015945435	2	1	66.4282169342041	500
25	1	0	0	0	1	0	0	99	69.4438300132751	200
26	1	0	0	0	1	0.58040976524353	1	1	73.1334249973297	300
27	1	0	0	0	1	0.51951003074646	1	1	75.9417669773102	300
28	1	0	0	0	2	0.394806861877441	2	1	78.757376909256	100
29	1	0	0	0	2	0.5259850025177	2	1	81.3731088638306	400
30	1	0	0	0	1	0.496614933013916	1	1	84.2888898849487	400
31	1	0	0	0	2	0.359701156616211	2	1	87.2045838832855	400
32	1	0	1	0	2	0.590983867645264	2	1	90.1202819347382	100
33	1	0	0	0	2	0.509613037109375	2	1	92.7359728813171	100
34	1	0	0	0	1	0.468429088592529	1	1	95.3517718315125	100
35	1	0	0	0	2	0.427371978759766	2	1	97.9675600528717	200
36	1	0	1	0	1	0.675652980804443	1	1	100.683357954025	200
37	1	0	0	0	1	0.630291938781738	1	1	103.39918088913	500
38	1	0	0	0	2	0.348412990570068	2	1	106.414883852005	200
39	1	0	0	0	1	0.433357000350952	1	1	109.130540847778	300
40	1	0	0	0	2	0.511420011520386	1	2	111.946300983429	300
41	1	0	0	0	1	0.705137968063354	1	1	114.762034893036	200
42	1	0	0	0	1	0.614089012145996	1	1	117.477756977081	400
43	1	1	0	0	1	0.638921976089478	1	1	120.393575906754	100
44	1	0	0	0	2	0.455932855606079	2	1	123.009208917618	100
45	1	0	0	0	2	0.817965030670166	2	1	125.625025987625	100
46	1	0	0	0	1	0.442708015441895	1	1	128.24080491066	400
47	1	0	0	0	1	0.695838928222656	1	1	131.156611919403	500
48	1	0	0	0	1	0.41546893119812	1	1	134.172297000885	200
49	1	0	0	0	1	0.498466968536377	1	1	136.887950897217	300
50	1	0	0	0	1	0.883535146713257	1	1	139.703732967377	400
51	1	0	0	0	1	0.64029598236084	1	1	142.619426965714	300
52	1	0	0	0	1	0.479992151260376	1	1	145.435168027878	200
53	1	0	0	0	2	0.563904047012329	2	1	148.150892019272	500
54	1	0	0	0	1	0.444178819656372	1	1	151.166648864746	500
55	1	1	0	0	1	0.516786098480225	1	1	154.182308912277	400
56	1	0	0	0	2	0.73728609085083	2	1	157.097962856293	100
57	1	0	0	0	2	0.554522037506104	2	1	159.713611841202	200
58	1	0	1	0	1	0.538096189498901	1	1	162.429460048676	300
59	1	0	0	0	2	0.72144889831543	2	1	165.245218992233	500
60	1	1	0	0	2	0.919129133224487	2	1	168.260943889618	500
61	2	0	0	0	2	0.418183088302612	2	1	182.905637979507	100
62	2	0	1	0	1	0.471532106399536	1	1	185.521785020828	200
63	2	0	0	0	2	0.409122943878174	2	1	188.237571954727	300
64	2	0	0	0	1	0.52750301361084	1	1	191.05334186554	100
65	2	0	0	0	1	0.630186080932617	1	1	193.669070005417	100
66	2	0	0	0	2	0.414321184158325	2	1	196.284875869751	500
67	2	1	0	0	1	0.610251903533936	1	1	199.300643920898	200
68	2	0	0	0	2	0.39532208442688	2	1	202.016329050064	500
69	2	0	0	0	2	0.483114957809448	2	1	205.032163858414	200
70	2	0	0	0	2	0.442802906036377	2	1	207.747706890106	300
71	2	0	0	0	2	0.356489181518555	2	1	210.563533067703	200
72	2	0	0	0	1	0.409252166748047	1	1	213.279330015182	400
73	2	0	0	0	2	0.744818925857544	2	1	216.194988012314	300
74	2	0	0	0	2	0.777316093444824	1	2	219.010876893997	100
75	2	0	0	0	1	0.577278137207031	1	1	221.626406908035	400
76	2	0	1	0	2	0.483222007751465	2	1	224.542209863663	500
77	2	0	0	0	1	0	0	99	227.557961940765	200
78	2	0	0	0	2	0.582695007324219	2	1	231.1576359272	100
79	2	0	0	0	1	0.478447914123535	1	1	233.772378921509	500
80	2	1	0	0	2	0.557376861572266	1	2	236.788172960281	400
81	2	0	0	0	1	0.544573068618774	1	1	239.703850030899	500
82	2	0	0	0	2	0.416920900344849	1	2	242.719534873962	500
83	2	0	1	0	1	0.499889135360718	1	1	245.735138893127	500
84	2	0	0	0	1	0.561887979507446	1	1	248.750856876373	400
85	2	0	0	0	1	0.357717037200928	1	1	251.666533946991	200
86	2	1	0	0	1	0.669474124908447	1	1	254.38223195076	400
87	2	0	0	0	1	0.4413161277771	1	1	257.297994852066	200
88	2	0	0	0	2	0.525613069534302	2	1	260.013685941696	300
89	2	0	0	0	1	0.540800094604492	1	1	262.829470872879	100
90	2	0	1	0	2	0.837843179702759	2	1	265.445199012756	400
91	2	0	0	0	2	0.583693027496338	2	1	268.360924005508	100
92	2	0	0	0	2	0.75272798538208	2	1	270.976707935333	200
93	2	0	0	0	1	0.463424921035767	2	2	273.692482948303	100
94	2	0	0	0	2	0.387562990188599	2	1	276.308269023895	200
95	2	0	0	0	1	0.635436058044434	1	1	279.024061918259	300
96	2	0	0	0	2	0.539463996887207	2	1	281.839829921722	500
97	2	1	0	0	2	0.490142107009888	2	1	284.85551404953	400
98	2	0	0	0	1	0	0	99	287.771286010742	300
99	2	0	0	0	1	0.623044013977051	1	1	291.426941871643	100
100	2	0	0	0	2	0.503436088562012	2	1	294.03565788269	300
101	2	0	0	0	1	0.50394082069397	1	1	296.851506948471	500
102	2	0	0	0	2	0.446253061294556	2	1	299.867311954498	100
103	2	0	0	0	1	0.582129001617432	2	2	302.482900857925	300
104	2	0	0	0	2	0.50478196144104	2	1	305.298657894135	400
105	2	0	0	0	1	0.613212108612061	1	1	308.214468002319	500
106	2	0	0	0	1	0.653470993041992	1	1	311.23014998436	500
107	2	0	0	0	1	0.706752061843872	1	1	314.245807886124	100
108	2	0	0	0	1	0.670757055282593	2	2	316.861449956894	300
109	2	0	0	0	2	0.511268138885498	2	1	319.677285909653	200
110	2	0	0	0	2	0.546783924102783	2	1	322.393002033234	300
111	2	1	0	0	2	0.530350923538208	2	1	325.208791971207	400
112	2	0	0	0	1	0.783334016799927	1	1	328.124508857727	100
113	2	0	0	0	1	0.567146778106689	2	2	330.740197896957	200
114	2	1	0	0	1	0.446540832519531	1	1	333.456001996994	300
115	2	0	0	0	2	0.481510162353516	2	1	336.271780014038	500
116	2	0	0	0	2	0.368767023086548	2	1	339.287514925003	400
117	2	0	1	0	1	0.497413873672485	1	1	342.203238964081	300
118	2	0	0	0	2	0.614043951034546	2	1	345.018883943558	400
119	2	0	0	0	1	0.860850095748901	1	1	347.934602022171	400
120	2	0	1	0	2	0.553521156311035	2	1	350.850311040878	200
121	3	0	0	0	2	0.483599901199341	2	1	364.245532035828	400
122	3	0	1	0	2	0.466402053833008	2	1	367.161553859711	300
123	3	0	0	0	1	0.707611083984375	1	1	369.977265834808	500
124	3	1	0	0	1	0.558915138244629	2	2	372.993046045303	100
125	3	0	0	0	1	0.514232873916626	2	2	375.608687877655	200
126	3	0	0	0	1	0.536195039749146	1	1	378.324470043182	100
127	3	0	0	0	2	0.772627830505371	2	1	380.940244913101	300
128	3	0	0	0	1	0.736265897750854	1	1	383.75604891777	300
129	3	0	0	0	2	0.475996017456055	2	1	386.571785926819	500
130	3	0	0	0	2	0.489082813262939	2	1	389.587514877319	400
131	3	0	0	0	1	0.548386096954346	2	2	392.503205060959	300
132	3	0	0	0	1	0.533622980117798	1	1	395.318938016891	400
133	3	0	1	0	1	0.646322965621948	1	1	398.234621047974	500
134	3	0	0	0	2	0.600178956985474	2	1	401.250287055969	400
135	3	0	0	0	1	0.661545991897583	1	1	404.16592502594	300
136	3	0	0	0	2	0.710354089736938	1	2	406.981668949127	200
137	3	0	0	0	2	0.393878936767578	2	1	409.69740486145	400
138	3	0	0	0	2	0	0	99	412.61319899559	100
139	3	0	0	0	2	0.663547992706299	2	1	416.216011047363	100
140	3	0	0	0	2	0.527483224868774	2	1	418.827708959579	400
141	3	0	0	0	1	0.637411832809448	1	1	421.743538856506	500
142	3	0	0	0	1	0	0	99	424.759281873703	100
143	3	0	1	0	2	0.544250965118408	2	1	428.45937204361	200
144	3	0	0	0	2	0.501888990402222	2	1	431.173658847809	400
145	3	0	0	0	1	0.354377031326294	2	2	434.089375972748	200
146	3	0	0	0	1	0.620317220687866	1	1	436.805127859116	200
147	3	1	0	0	1	0.408341884613037	1	1	439.520894050598	300
148	3	0	0	0	2	0.492562055587769	2	1	442.336657047272	100
149	3	0	0	0	2	0.599863052368164	2	1	444.952396869659	100
150	3	0	0	0	1	0.512557029724121	1	1	447.5681848526	300
151	3	0	0	0	2	0.40987491607666	2	1	450.38399887085	200
152	3	0	0	0	1	0.768455028533936	1	1	453.099732875824	500
153	3	0	0	0	1	0.760523080825806	1	1	456.115438938141	400
154	3	1	0	0	2	0.580609798431396	2	1	459.031200885773	500
155	3	0	0	0	2	0.82866096496582	2	1	462.046875	200
156	3	0	0	0	2	0	0	99	464.762522935867	300
157	3	0	0	0	1	0	0	99	468.418051958084	300
158	3	0	0	0	2	0.877583026885986	1	2	472.109439849854	200
159	3	0	0	0	1	0	0	99	474.825856924057	100
160	3	0	0	0	1	0.464160919189453	1	1	478.518389940262	300
161	3	0	1	0	1	0.542149066925049	1	1	481.340429067612	100
162	3	0	0	0	1	0.695048809051514	1	1	483.956161022186	100
163	3	0	0	0	1	0.512633800506592	1	1	486.571945905685	400
164	3	1	0	0	2	0.732869863510132	2	1	489.487820863724	500
165	3	0	0	0	2	0.3730309009552	2	1	492.503531932831	500
166	3	1	0	0	1	0.364431142807007	2	2	495.51916885376	400
167	3	0	0	0	1	0	0	99	498.434805870056	400
168	3	0	0	0	1	0.482346057891846	1	1	501.81668305397	500
169	3	0	1	0	2	0.494881153106689	2	1	504.832721948624	400
170	3	0	0	0	1	0.77321195602417	1	1	507.748393058777	200
171	3	0	0	0	1	0	0	99	510.464095830917	100
172	3	0	1	0	1	0	0	99	514.177145004272	300
173	3	0	0	0	1	0.828546047210693	1	1	517.715321063995	500
174	3	0	0	0	2	0.789795875549316	2	1	520.727447032928	200
175	3	0	0	0	2	0.648551940917969	2	1	523.443222999573	500
176	3	0	0	0	2	0.416769981384277	2	1	526.458924055099	100
177	3	0	0	0	2	0.537013053894043	2	1	529.074589014053	200
178	3	0	0	0	2	0	0	99	531.790390014648	500
179	3	1	0	0	2	0	0	99	535.507564067841	300
180	3	0	0	0	2	0.313920974731445	2	1	539.1504778862	200
181	4	0	0	0	2	0.386305093765259	2	1	550.267343044281	300
182	4	0	0	0	1	0.46433687210083	1	1	553.083382844925	400
183	4	0	0	0	1	0.55812406539917	1	1	555.99914598465	100
184	4	0	0	0	2	0.390491008758545	2	1	558.614820957184	500
185	4	0	0	0	1	0.429363965988159	1	1	561.63063287735	200
186	4	0	0	0	2	0.401502132415771	2	1	564.346297025681	300
187	4	1	0	0	2	0.57392692565918	2	1	567.162076950073	500
188	4	0	0	0	2	0	0	99	570.17780995369	100
189	4	0	1	0	1	0.56525993347168	1	1	573.520828008652	500
190	4	0	0	0	2	0.397698163986206	2	1	576.54235291481	500
191	4	0	0	0	2	0.774043083190918	2	1	579.558142900467	200
192	4	0	0	0	1	0.950859069824219	1	1	582.273712873459	100
193	4	0	0	0	2	0.47219705581665	2	1	584.88948392868	500
194	4	0	0	0	1	0.731978178024292	1	1	587.905287027359	200
195	4	1	0	0	1	0.494739055633545	2	2	590.620986938477	400
196	4	0	0	0	2	0.586750030517578	2	1	593.536752939224	200
197	4	0	0	0	2	0.480139017105103	2	1	596.252430915833	100
198	4	0	0	0	1	0	0	99	598.868207931519	100
199	4	0	0	0	1	0.67657995223999	1	1	602.57447385788	200
200	4	0	0	0	1	0.585047960281372	1	1	605.282788038254	200
201	4	0	0	0	2	0.684946060180664	2	1	607.998548030853	400
202	4	0	0	0	1	0.442392110824585	1	1	610.91432595253	500
203	4	0	0	0	1	0.593648910522461	1	1	613.930023908615	400
204	4	0	0	0	2	0.515807867050171	2	1	616.845701932907	400
205	4	0	0	0	1	0.553986787796021	1	1	619.761415958405	500
206	4	0	0	0	2	0.403959035873413	2	1	622.777114868164	300
207	4	1	0	0	2	0.581218004226685	2	1	625.592871904373	400
208	4	0	0	0	1	0.721729040145874	1	1	628.508496046066	200
209	4	0	1	0	1	0.791501998901367	1	1	631.224236965179	100
210	4	0	0	0	1	0.825615167617798	1	1	633.8399310112	400
211	4	0	0	0	1	0	0	99	636.755758047104	300
212	4	0	1	0	2	0.870805978775024	2	1	640.428596019745	400
213	4	0	0	0	1	0.563211917877197	1	1	643.336958885193	300
214	4	0	0	0	2	0.738981008529663	2	1	646.152612924576	100
215	4	1	0	0	1	0.540253877639771	1	1	648.768345832825	200
216	4	0	0	0	1	0	0	99	651.484215974808	100
217	4	0	1	0	2	0.827476978302002	2	1	655.208876848221	500
218	4	0	0	0	2	0.516041994094849	2	1	658.232092857361	300
219	4	1	0	0	1	0.867249011993408	1	1	661.047755002975	400
220	4	0	0	0	2	0.642654180526733	2	1	663.963492870331	100
221	4	0	1	0	2	0.58479118347168	2	1	666.579239845276	100
222	4	0	0	0	2	0.528831958770752	2	1	669.195008039474	100
223	4	1	0	0	2	0.424476861953735	2	1	671.810744047165	200
224	4	0	0	0	1	0	0	99	674.526587963104	400
225	4	0	0	0	1	0.698914051055908	1	1	678.215227842331	500
226	4	0	0	0	1	0.483701944351196	1	1	681.224504947662	300
227	4	0	0	0	2	0.180279970169067	1	2	684.040176868439	200
228	4	0	0	0	2	0	0	99	686.7559030056	500
229	4	0	0	0	2	0.452282905578613	2	1	690.074669837952	300
230	4	0	0	0	1	0.372756004333496	2	2	692.887276887894	300
231	4	0	0	0	1	0.373528957366943	2	2	695.702995061874	200
232	4	0	0	0	1	0.41250205039978	2	2	698.418729066849	300
233	4	0	0	0	2	0.376859188079834	2	1	701.23450088501	300
234	4	0	1	0	1	0.617969989776611	1	1	704.050235033035	100
235	4	0	0	0	1	0.450011014938354	1	1	706.665982961655	300
236	4	0	0	0	1	0	0	99	709.481777906418	400
237	4	0	0	0	2	0.573362827301025	2	1	712.960412025452	200
238	4	0	0	0	2	0.860260009765625	2	1	715.679709911346	500
239	4	0	0	0	2	0	0	99	718.695484876633	400
240	4	0	0	0	2	0.449189901351929	2	1	722.406115055084	500
