TrialNum	Block	Odd: Visual	Odd: Audio	Odd: Haptic	CueDirection	RT	RespDirection	Acc	TrialTime	ITI
1	1	0	0	0	1	0.423019499634393	1	1	4.84411139041185e-05	500
2	1	0	0	0	1	0.48275178426411	1	1	3.01507221884094	300
3	1	0	0	0	2	0.370480868616141	2	1	5.82999699737411	300
4	1	1	0	0	1	0.489712215377949	1	1	8.64617482665926	400
5	1	0	0	0	1	0.488035064889118	1	1	11.562057775096	100
6	1	0	0	0	2	0.551177149172872	2	1	14.1770099500427	100
7	1	0	0	0	2	0.53777919348795	2	1	16.7933560076635	200
8	1	0	0	0	2	0.548565503791906	2	1	19.5085352458991	200
9	1	0	0	0	2	0.455659773317166	2	1	22.2247744123451	100
10	1	0	0	0	1	0.492210938595235	1	1	24.8401920703473	500
11	1	0	0	0	2	0.392824696027674	2	1	27.855664328672	300
12	1	0	0	0	2	0.485540512017906	2	1	30.6715543989558	100
13	1	0	0	0	1	0.425676057115197	1	1	33.2869149543112	300
14	1	1	0	0	1	0.62508340831846	1	1	36.1031749086687	200
15	1	0	0	0	1	0.509599665412679	1	1	38.8183060267475	400
16	1	0	1	0	2	0.769695289782248	2	1	41.734509776812	500
17	1	0	0	0	2	0.572056196746416	2	1	44.7500930324895	300
18	1	0	0	0	1	0.4610996049596	1	1	47.565205159015	300
19	1	0	1	0	1	0.592656467808411	1	1	50.3808700266527	200
20	1	0	0	0	2	0.422119651222602	2	1	53.0968916896963	500
21	1	0	0	0	2	0.434954279335216	2	1	56.1122349859215	200
22	1	0	1	0	2	0.604629102163017	2	1	58.8284334106138	500
23	1	0	0	0	1	0.469187653507106	1	1	61.8434867021861	400
24	1	1	0	0	2	0.50403664575424	2	1	64.7594642870827	300
25	1	0	0	0	1	0.543986703385599	1	1	67.5752125631552	200
26	1	0	0	0	2	0.401281345519237	2	1	70.2906500466634	200
27	1	0	0	0	1	0.455150982015766	1	1	73.0065292738145	100
28	1	0	0	0	2	0.385581318056211	2	1	75.6217624709243	500
29	1	1	0	0	2	0.552307974663563	2	1	78.6380713796243	200
30	1	0	0	0	2	0.444944680901244	2	1	81.353090858669	200
31	1	0	0	0	1	0.482239464181475	1	1	84.069105143426	500
32	1	1	0	0	2	0.508269622107036	2	1	87.0848362885881	400
33	1	0	0	0	2	0.4235549174482	2	1	89.9999162708409	300
34	1	0	0	0	2	0.525096946163103	2	1	92.8160918544745	500
35	1	0	0	0	2	0.413704706006683	2	1	95.8318637415068	400
36	1	0	0	0	1	0.750140190240927	1	1	98.747250089189	100
37	1	0	0	0	2	0.36478535819333	2	1	101.363054954563	500
38	1	0	0	0	1	0.521288390271366	1	1	104.378294952679	500
39	1	0	1	0	2	0.552656044368632	2	1	107.394481636118	200
40	1	0	0	0	2	0.442291652201675	2	1	110.109310558997	400
41	1	0	0	0	1	0.488338863942772	1	1	113.025156615302	300
42	1	0	0	0	2	0.419446091284044	2	1	115.840774004348	100
43	1	1	0	0	1	0.488655815832317	1	1	118.456805997179	300
44	1	0	0	0	1	0.45427455229219	1	1	121.272586674197	100
45	1	0	0	0	1	0.504806569544598	1	1	123.887666848954	300
46	1	0	0	0	2	0.379697817843407	2	1	126.703867775854	100
47	1	0	0	0	1	0.430545182898641	1	1	129.319775297772	200
48	1	0	0	0	1	0.38895422546193	1	1	132.034929192741	400
49	1	0	0	0	2	0.418083647149615	2	1	134.950619339477	400
50	1	0	0	0	1	0.409308441681787	1	1	137.866879550624	400
51	1	0	1	0	1	0.517850360251032	1	1	140.782137898495	400
52	1	0	0	0	2	0.432323065120727	2	1	143.697494411608	100
53	1	0	0	0	1	0.424596559954807	1	1	146.313125723391	400
54	1	0	1	0	1	0.487399236182682	1	1	149.228840892785	400
55	1	0	0	0	2	0.548495248309337	2	1	152.144472653628	300
56	1	0	0	0	1	0.464521595160477	1	1	154.960006954963	100
57	1	0	0	0	1	0.462144776480272	1	1	157.576161173289	200
58	1	0	0	0	1	0.452410695259459	1	1	160.291480281041	100
59	1	0	0	0	2	0.497842930490151	2	1	162.907170299441	500
60	1	0	0	0	1	0.494724097894505	1	1	165.923305654549	500
61	2	0	0	0	1	0.480929631507024	1	1	177.386401607655	300
62	2	0	0	0	1	0.498924031620845	1	1	180.201062366366	200
63	2	0	0	0	2	0.41288954927586	2	1	182.916739488603	100
64	2	0	0	0	1	0.387864783522673	1	1	185.532858418766	400
65	2	0	1	0	2	0.446724167093635	2	1	188.448160395608	500
66	2	0	0	0	2	0.464228382450528	2	1	191.464345475077	500
67	2	0	0	0	1	0.430803107330576	1	1	194.479344230378	200
68	2	1	0	0	1	0.508876899373718	1	1	197.195292109041	200
69	2	0	0	0	1	0.408207450876944	1	1	199.91048642504	200
70	2	0	0	0	2	0.347018406260759	2	1	202.626663035247	200
71	2	0	0	0	2	0.507910965941846	2	1	205.3420379624	300
72	2	0	0	0	1	0.355061542592011	1	1	208.158268403145	200
73	2	0	1	0	2	0.701927247340791	2	1	210.873712944216	500
74	2	0	0	0	2	0.423953352845274	2	1	213.888922466198	400
75	2	0	1	0	1	0.456821074942127	1	1	216.804977043415	400
76	2	0	0	0	1	0.439023005310446	1	1	219.72029217321	300
77	2	1	0	0	2	0.564031025394797	2	1	222.535768409492	500
78	2	0	0	0	1	0.479621723643504	1	1	225.552107794443	100
79	2	0	0	0	1	0.41688866133336	1	1	228.167454876122	100
80	2	1	0	0	1	0.539862158009782	1	1	230.782901085331	100
81	2	0	0	0	2	0.47573810024187	2	1	233.398515394656	500
82	2	0	0	0	2	0.427545046899468	2	1	236.414856062736	100
83	2	0	0	0	1	0.466286965995096	1	1	239.030438291957	300
84	2	0	0	0	2	0.374797253403813	2	1	241.845653395751	300
85	2	0	0	0	2	0.450797705096193	2	1	244.661319225794	500
86	2	0	0	0	2	0.364554701838642	2	1	247.677565578255	300
87	2	0	0	0	2	0.341193612664938	2	1	250.492557404214	100
88	2	0	0	0	1	0.499969523749314	1	1	253.108220154536	100
89	2	0	1	0	1	0.450162518071011	1	1	255.724365711212	400
90	2	0	0	0	2	0.564597881631926	2	1	258.6400581036	100
91	2	0	0	0	1	0.44437942863442	1	1	261.255780523061	500
92	2	0	0	0	1	0.48839147540275	1	1	264.271021162625	100
93	2	0	0	0	2	0.454493018100038	2	1	266.886616865406	500
94	2	0	0	0	1	0.441242310334928	1	1	269.902787829633	400
95	2	0	0	0	1	0.467516919132322	1	1	272.818286778638	200
96	2	0	0	0	1	0.508332499186508	1	1	275.534131680033	100
97	2	0	0	0	2	0.447964065009728	2	1	278.149245538982	400
98	2	0	0	0	2	0.447131905937567	2	1	281.065467574634	500
99	2	0	1	0	1	0.50222315476276	1	1	284.081133276341	400
100	2	0	0	0	1	0.43505051988177	1	1	286.996195935295	500
101	2	0	0	0	2	0.407142389682122	2	1	290.011690649786	300
102	2	0	0	0	1	0.479528370429762	1	1	292.827403637697	100
103	2	0	1	0	2	0.407574830111116	2	1	295.443066067179	200
104	2	0	0	0	2	0.464207530370913	2	1	298.159410456661	500
105	2	1	0	0	2	0.513511198572814	2	1	301.174387397361	500
106	2	0	0	0	1	0.539393787737936	1	1	304.190481689991	400
107	2	0	0	0	2	0.423363719601184	2	1	307.106245941832	300
108	2	0	0	0	2	0.429229896632023	2	1	309.921162379556	400
109	2	0	0	0	2	0.387483992031775	2	1	312.837284004316	300
110	2	0	0	0	1	0.453215907095	1	1	315.652576421387	200
111	2	0	0	0	2	0.501588288461789	2	1	318.368231729139	200
112	2	0	0	0	2	0.378566350787878	2	1	321.08440737694	400
113	2	1	0	0	2	0.583558536018245	2	1	324.000051969895	100
114	2	0	0	0	2	0.433995724306442	2	1	326.615704775322	400
115	2	0	0	0	1	0.487676408723928	1	1	329.530966331251	200
116	2	0	0	0	1	0.533927971031517	1	1	332.247109257383	300
117	2	0	0	0	1	0.440179174067453	1	1	335.062282015337	200
118	2	1	0	0	1	0.520658977678977	1	1	337.778320680954	300
119	2	0	0	0	1	0.598220128915273	1	1	340.594160064589	300
120	2	0	0	0	2	0.436135470634326	2	1	343.409308441682	400
121	3	1	0	0	1	0.472907668212429	1	1	352.442478358746	200
122	3	0	0	0	1	0.470112845068797	1	1	355.155057179742	300
123	3	0	0	0	1	0.425350443576463	1	1	357.970616503619	400
124	3	1	0	0	2	0.437266937689856	2	1	360.886891150731	100
125	3	0	0	0	1	0.420321237761527	1	1	363.501965551055	400
126	3	0	0	0	2	0.546541566844098	2	1	366.41775771277	100
127	3	0	0	0	1	0.420838369987905	1	1	369.03396646725	400
128	3	0	0	0	2	0.475178622291423	2	1	371.948974269209	400
129	3	0	0	0	1	0.554621274466626	1	1	374.864741408266	500
130	3	0	0	0	1	0.40546523919329	1	1	377.880860081757	200
131	3	0	0	0	1	0.461177238961682	1	1	380.596363008837	500
132	3	0	0	0	1	0.386006700922735	1	1	383.612189432024	300
133	3	0	0	0	1	0.408423029468395	1	1	386.42724766396	400
134	3	0	1	0	1	0.429183701169677	1	1	389.342895464972	300
135	3	0	0	0	2	0.375508791184984	2	1	392.159068802954	300
136	3	0	0	0	1	0.430625383392908	1	1	394.974184137536	400
137	3	0	1	0	1	0.448757407255471	1	1	397.889689502656	100
138	3	0	0	0	2	0.477072634617798	2	1	400.5058010543	300
139	3	0	0	0	2	0.517154862522148	2	1	403.321544197504	300
140	3	0	0	0	1	0.447342672501691	1	1	406.137454799144	500
141	3	0	0	0	1	0.453398443176411	1	1	409.152503920253	100
142	3	0	0	0	2	0.543672638712451	2	1	411.768089357414	500
143	3	0	1	0	2	0.627652707858942	2	1	414.783813124173	100
144	3	0	0	0	2	0.505833134404384	2	1	417.399662260199	300
145	3	0	0	0	2	0.417816740227863	2	1	420.215720109642	200
146	3	0	0	0	2	0.397085261414759	2	1	422.930825884338	500
147	3	0	0	0	1	0.358966980478726	1	1	425.946361982264	300
148	3	1	0	0	1	0.411830262630247	1	1	428.762608463061	200
149	3	0	0	0	2	0.50065475597512	2	1	431.478133846074	100
150	3	0	0	0	1	0.447171364561655	1	1	434.09399036062	200
151	3	0	0	0	1	0.553833706770092	1	1	436.809667482856	500
152	3	0	0	0	1	0.540665445034392	1	1	439.824850698933	100
153	3	0	0	0	1	0.515656077652238	1	1	442.440869218204	100
154	3	0	0	0	2	0.497517637675628	2	1	445.056171387667	100
155	3	0	1	0	1	0.51325070776511	1	1	447.672449756064	500
156	3	0	0	0	1	0.493146716617048	1	1	450.687619177857	200
157	3	0	1	0	2	0.468188035883941	2	1	453.403669713065	500
158	3	0	0	0	1	0.495742642669939	1	1	456.418863515602	500
159	3	0	0	0	2	0.424459898495115	2	1	459.43482563796	300
160	3	0	0	0	2	0.442058429471217	2	1	462.250085974811	200
161	3	0	0	0	2	0.470001847832464	2	1	464.96625456505	200
162	3	0	0	0	2	0.339919709833339	2	1	467.681752359145	500
163	3	1	0	0	2	0.483259613043629	2	1	470.697469068342	100
164	3	0	0	0	1	0.502663294435479	1	1	473.312731137499	400
165	3	0	0	0	2	0.429905825527385	2	1	476.229005463887	200
166	3	0	0	0	2	0.41009055590257	2	1	478.944031359046	200
167	3	0	0	0	2	0.372437758021988	2	1	481.660087027121	200
168	3	0	0	0	1	0.514577542897314	1	1	484.376047096215	100
169	3	0	0	0	1	0.431521061225794	1	1	486.991144915111	300
170	3	0	0	0	2	0.425347235635854	2	1	489.80745812261	400
171	3	0	0	0	2	0.500967858242802	2	1	492.723034064053	400
172	3	0	0	0	2	0.426496667554602	2	1	495.638190397061	500
173	3	0	0	0	2	0.405921739875339	2	1	498.654182674713	100
174	3	0	0	0	2	0.441341758938506	2	1	501.269384754007	300
175	3	1	0	0	2	0.560218299040571	2	1	504.085097741801	400
176	3	0	0	0	1	0.439392247935757	1	1	507.000768961268	300
177	3	0	1	0	2	0.364505298319273	2	1	509.816832906101	200
178	3	0	0	0	2	0.405245169298723	2	1	512.532408334198	500
179	3	1	0	0	1	0.58509132580366	1	1	515.547615289688	400
180	3	0	0	0	1	0.472109193215147	1	1	518.463727611233	400
181	4	0	0	0	1	0.521527708275244	1	1	538.591579537024	200
182	4	0	1	0	2	0.52022364991717	2	1	541.305076812743	300
183	4	0	0	0	1	0.455714951152913	1	1	544.121346712112	100
184	4	0	0	0	1	0.39085529546719	1	1	546.736988289515	400
185	4	0	1	0	1	0.41732206416782	1	1	549.652600802248	100
186	4	0	0	0	1	0.491278368397616	1	1	552.267801598413	100
187	4	0	0	0	1	0.521915878169239	1	1	554.884011636139	400
188	4	0	0	0	1	0.339337454992346	1	1	557.799708198989	400
189	4	0	0	0	1	0.367471108562313	1	1	560.715319428593	300
190	4	0	0	0	1	0.39393916062545	1	1	563.530963764875	300
191	4	0	0	0	2	0.537058994057588	2	1	566.346765293973	400
192	4	1	0	0	1	0.376953039783984	1	1	569.261858108221	300
193	4	0	0	0	2	0.463197647128254	2	1	572.077894464019	100
194	4	0	0	0	1	0.450193956610747	1	1	574.693527700612	400
195	4	1	0	0	2	0.494692659238353	2	1	577.609360604081	500
196	4	0	0	0	2	0.43719828617759	2	1	580.624900551513	500
197	4	0	0	0	2	0.387686096946709	2	1	583.640599937411	200
198	4	0	0	0	1	0.3741880513262	1	1	586.356053460971	200
199	4	1	0	0	2	0.55986381333787	2	1	589.071980487555	300
200	4	0	0	0	1	0.502158031915314	1	1	591.886893396382	400
201	4	0	1	0	1	0.544944616849534	1	1	594.80302047485	500
202	4	0	0	0	2	0.38136919378303	2	1	597.818295440287	400
203	4	0	0	0	1	0.490382690564729	1	1	600.733787652454	500
204	4	0	0	0	2	0.38301843451336	2	1	603.749829333625	500
205	4	0	0	0	2	0.378636926994659	2	1	606.76543889509	500
206	4	0	0	0	2	0.38843581022229	2	1	609.781255694223	300
207	4	0	0	0	2	0.378189408918843	2	1	612.596275109216	300
208	4	0	0	0	2	0.43772279669065	2	1	615.41249464266	300
209	4	0	0	0	2	0.356502903974615	2	1	618.228096312378	300
210	4	0	0	0	1	0.403618064010516	1	1	621.04359179677	200
211	4	0	0	0	2	0.488115585991181	2	1	623.758889410761	400
212	4	1	0	0	1	0.442292935447767	1	1	626.674608429661	200
213	4	0	0	0	1	0.534641754464246	1	1	629.390211767517	100
214	4	0	0	0	2	0.449756062589586	2	1	632.005773465382	100
215	4	0	0	0	1	0.501047737896442	1	1	634.622053437866	300
216	4	0	0	0	1	0.45843181933742	1	1	637.437231328688	400
217	4	0	1	0	1	0.473278835532255	1	1	640.353392412188	200
218	4	0	0	0	1	0.475117669906467	1	1	643.068578707986	100
219	4	0	0	0	1	0.478140582912602	1	1	645.684236967121	400
220	4	0	0	0	2	0.44247226358857	2	1	648.600072757807	200
221	4	0	0	0	2	0.341638885205612	2	1	651.316250330419	500
222	4	1	0	0	2	0.518527251551859	2	1	654.331957415561	500
223	4	0	0	0	2	0.483174279914238	2	1	657.347348831943	200
224	4	0	0	0	1	0.373301997431554	1	1	660.062977513066	300
225	4	0	0	0	2	0.377048638649285	2	1	662.878668686491	500
226	4	0	0	0	2	0.367231148993596	2	1	665.894360373029	100
227	4	0	0	0	2	0.377838131273165	2	1	668.509845720138	500
228	4	0	0	0	2	0.314627395360731	2	1	671.525675672223	100
229	4	0	0	0	1	0.456613516318612	1	1	674.141346763354	300
230	4	0	0	0	1	0.520185153814964	1	1	676.957176843775	500
231	4	0	0	0	1	0.490754178725183	1	1	679.972076471429	100
232	4	0	0	0	2	0.370537329814397	2	1	682.588300945237	200
233	4	0	1	0	2	0.447837348561734	2	1	685.303986408282	100
234	4	0	0	0	1	0.435634378576651	1	1	687.919099304825	500
235	4	1	0	0	1	0.482619934831746	1	1	690.935254549608	400
236	4	0	0	0	2	0.488811083720066	2	1	693.850911332993	200
237	4	0	0	0	2	0.418181491550058	2	1	696.566160505987	400
238	4	0	1	0	2	0.53055025159847	2	1	699.482261920348	100
239	4	0	0	0	2	0.373321245540865	2	1	702.097464641323	200
240	4	0	0	0	1	0.356995334266685	1	1	704.813788820175	200
