TrialNum	Block	Odd: Visual	Odd: Audio	Odd: Haptic	CueDirection	RT	RespDirection	Acc	TrialTime	ITI
1	1	0	0	0	1	0.636698961257935	1	1	2.00271606445312e-05	100
2	1	0	0	0	2	0.42435622215271	1	2	2.61614489555359	300
3	1	0	0	0	2	0.450156927108765	2	1	5.43179488182068	500
4	1	0	0	0	1	0.345877170562744	2	2	8.44754910469055	100
5	1	0	1	0	2	0.63429594039917	1	2	11.0632569789886	200
6	1	0	0	0	2	0.431394815444946	2	1	13.7790610790253	200
7	1	0	0	0	2	0.914849042892456	2	1	16.4948511123657	400
8	1	0	0	0	1	0.511214971542358	1	1	19.4105689525604	300
9	1	0	0	0	1	0.575441122055054	1	1	22.2263379096985	100
10	1	0	0	0	1	0.359890937805176	2	2	24.8421030044556	400
11	1	0	0	0	1	0.420208930969238	1	1	27.757917881012	500
12	1	1	0	0	2	0.490710973739624	2	1	30.7738399505615	100
13	1	0	0	0	1	0.507984161376953	1	1	33.3893349170685	100
14	1	0	0	0	2	0.388066053390503	2	1	36.0051720142365	500
15	1	0	0	0	1	0.367110013961792	1	1	39.0209939479828	500
16	1	0	0	0	1	0.390419006347656	1	1	42.0367140769958	400
17	1	0	0	0	2	0.682003021240234	2	1	44.9523758888245	400
18	1	0	0	0	1	0.404335975646973	1	1	47.8681778907776	100
19	1	0	0	0	2	0.311015129089355	2	1	50.4838171005249	300
20	1	0	0	0	2	0.401056051254272	1	2	53.2996799945831	200
21	1	0	1	0	2	0	0	99	56.015487909317	100
22	1	0	0	0	1	0.591790914535522	1	1	59.685564994812	200
23	1	0	1	0	1	0.699856042861938	1	1	62.396703004837	400
24	1	0	0	0	1	0.458033084869385	1	1	65.3124868869781	400
25	1	0	0	0	1	0.350401878356934	2	2	68.2282021045685	300
26	1	0	0	0	2	0.502109050750732	1	2	71.0439229011536	100
27	1	0	0	0	1	0.373005867004395	1	1	73.6596570014954	400
28	1	1	0	0	1	0.346749067306519	2	2	76.5754981040955	200
29	1	0	0	0	2	0.455631017684937	2	1	79.2912299633026	500
30	1	0	1	0	1	0.592036008834839	1	1	82.3070220947266	500
31	1	0	0	0	1	0.664384126663208	1	1	85.3227069377899	300
32	1	0	0	0	2	0.469632863998413	2	1	88.1384029388428	400
33	1	0	1	0	1	0.631582021713257	1	1	91.0541620254517	200
34	1	0	0	0	2	0.424429893493652	2	1	93.7698678970337	400
35	1	0	0	0	2	0.461306095123291	1	2	96.6856780052185	200
36	1	0	0	0	1	0.319119930267334	2	2	99.4014019966125	300
37	1	0	0	0	2	0.626765012741089	2	1	102.217194080353	500
38	1	0	0	0	2	0.417968988418579	2	1	105.232949018478	200
39	1	0	0	0	2	0.558513164520264	2	1	107.948681116104	300
40	1	1	0	0	1	0.555876970291138	1	1	110.764512062073	200
41	1	0	0	0	2	0.474911212921143	2	1	113.480194091797	100
42	1	0	0	0	2	0.405390977859497	2	1	116.095978975296	500
43	1	0	0	0	1	0.494131088256836	1	1	119.111802101135	500
44	1	1	0	0	2	0.394368886947632	2	1	122.127497911453	100
45	1	0	0	0	2	0.274863958358765	1	2	124.743176937103	300
46	1	1	0	0	2	0.546340942382812	2	1	127.559115886688	200
47	1	0	0	0	2	0.367627143859863	2	1	130.274770021439	300
48	1	0	1	0	2	0.725771188735962	2	1	133.090559959412	100
49	1	0	0	0	1	0.470096111297607	1	1	135.706274032593	400
50	1	1	0	0	1	0.51170802116394	1	1	138.622132062912	200
51	1	0	0	0	1	0.585134029388428	1	1	141.337871074677	400
52	1	0	0	0	1	0.485710859298706	1	1	144.253658056259	200
53	1	0	0	0	2	0.361883878707886	2	1	146.969393014908	500
54	1	0	0	0	2	0.3926842212677	2	1	149.985166072845	400
55	1	0	0	0	1	0.496524095535278	1	1	152.900860071182	500
56	1	0	0	0	1	0.510759115219116	1	1	155.916656017303	100
57	1	0	0	0	2	0.310692071914673	2	1	158.532231092453	500
58	1	0	0	0	1	0.598563194274902	1	1	161.54810500145	300
59	1	0	0	0	2	0.455846071243286	2	1	164.363792896271	300
60	1	0	0	0	1	0.4081130027771	1	1	167.179558992386	300
61	2	0	0	0	1	0.525107860565186	1	1	241.43865609169	500
62	2	1	0	0	1	0.653308868408203	1	1	244.454691886902	400
63	2	0	0	0	1	0.459563970565796	1	1	247.370397090912	500
64	2	0	0	0	1	0.441843032836914	1	1	250.386113882065	200
65	2	0	1	0	1	0.491006135940552	1	1	253.101811885834	400
66	2	0	0	0	1	0.441826105117798	1	1	256.017601013184	500
67	2	0	0	0	2	0.555757999420166	2	1	259.033337116241	200
68	2	0	0	0	1	0.353255033493042	1	1	261.749003887177	200
69	2	0	1	0	1	0.000524997711181641	1	1	264.464819908142	400
70	2	0	0	0	1	0.464947938919067	2	2	267.380716085434	100
71	2	0	0	0	2	0.389538049697876	2	1	269.996320962906	200
72	2	0	0	0	2	0.720538139343262	2	1	272.712130069733	200
73	2	1	0	0	2	0.544584989547729	2	1	275.427916049957	100
74	2	0	0	0	2	0.416510820388794	1	2	278.043734073639	200
75	2	0	0	0	2	0.357318878173828	2	1	280.759514093399	100
76	2	0	0	0	2	0.337699890136719	2	1	283.37530708313	300
77	2	0	0	0	1	0.541563987731934	1	1	286.191118001938	500
78	2	0	0	0	2	0.549472093582153	2	1	289.206877946854	300
79	2	0	0	0	2	0.495313882827759	2	1	292.022568941116	400
80	2	0	0	0	2	0.337874889373779	2	1	294.938335895538	300
81	2	1	0	0	2	0.420040130615234	2	1	297.754062891006	400
82	2	0	0	0	1	0.430830955505371	1	1	300.669811964035	500
83	2	0	0	0	1	0.424016952514648	1	1	303.685534954071	100
84	2	0	0	0	1	0.502141952514648	1	1	306.301243066788	400
85	2	0	0	0	2	0.353134870529175	2	1	309.217055082321	400
86	2	0	0	0	2	0.577263832092285	2	1	312.132774114609	300
87	2	0	0	0	2	0.3572838306427	2	1	314.948678016663	100
88	2	0	0	0	1	0.368541955947876	2	2	317.564265966415	400
89	2	0	0	0	2	0.455750942230225	2	1	320.480051040649	100
90	2	0	0	0	1	0.366070985794067	1	1	323.095813035965	400
91	2	0	0	0	1	0.380367994308472	1	1	326.011622905731	300
92	2	0	0	0	2	0.377709150314331	2	1	328.827363014221	500
93	2	0	1	0	1	0	0	99	331.843107938766	100
94	2	0	0	0	1	0.598254919052124	1	1	335.555362939835	400
95	2	0	0	0	1	0.427320957183838	1	1	338.474272966385	300
96	2	1	0	0	2	0.54797101020813	2	1	341.290003061295	500
97	2	0	0	0	1	0.395294189453125	1	1	344.30575299263	300
98	2	1	0	0	1	0.47590708732605	2	2	347.121454954147	400
99	2	0	0	0	2	0.412987947463989	2	1	350.037261009216	300
100	2	1	0	0	1	0.424475908279419	1	1	352.852932929993	200
101	2	0	0	0	1	0.437077045440674	1	1	355.568706989288	100
102	2	0	0	0	2	0.484923124313354	2	1	358.184498071671	100
103	2	0	1	0	2	0.628955125808716	1	2	360.800292015076	300
104	2	0	0	0	2	0.590193033218384	2	1	363.616089105606	300
105	2	0	0	0	2	0.453948974609375	2	1	366.431875944138	300
106	2	0	0	0	1	0.622108936309814	1	1	369.247627973557	100
107	2	0	0	0	1	0.419919013977051	1	1	371.863395929337	200
108	2	0	1	0	2	0.587823152542114	2	1	374.579215049744	500
109	2	0	0	0	2	0.466534852981567	2	1	377.594999074936	500
110	2	0	0	0	2	0.49059796333313	2	1	380.610677957535	500
111	2	0	1	0	2	0	0	99	383.6263859272	200
112	2	0	0	0	1	0.518218040466309	1	1	387.326543092728	200
113	2	0	0	0	1	0.533493041992188	1	1	390.040889978409	100
114	2	0	0	0	2	0.412815809249878	2	1	392.656646966934	100
115	2	0	0	0	1	0.59676718711853	1	1	395.272545099258	500
116	2	0	0	0	2	0.453277826309204	2	1	398.288323879242	200
117	2	0	0	0	1	0.579850912094116	1	1	401.004013061523	300
118	2	0	0	0	2	0.505635023117065	2	1	403.81979393959	200
119	2	0	0	0	2	0.83806586265564	2	1	406.535538911819	500
120	2	0	0	0	1	0.476152896881104	1	1	409.551315069199	400
121	3	0	0	0	2	0.463785171508789	2	1	450.221174001694	300
122	3	0	0	0	2	0.353930950164795	2	1	453.03723192215	200
123	3	0	0	0	2	0.341001033782959	2	1	455.753010034561	100
124	3	0	1	0	2	0.493832111358643	1	2	458.368788003922	400
125	3	0	0	0	1	0.410295009613037	1	1	461.284682035446	400
126	3	0	0	0	2	0.406002044677734	1	2	464.200326919556	100
127	3	0	0	0	2	0.414031982421875	1	2	466.816059112549	100
128	3	0	0	0	2	0.326602935791016	2	1	469.431875944138	300
129	3	0	1	0	1	0.630779027938843	1	1	472.247689008713	300
130	3	0	0	0	1	0.544514894485474	1	1	475.063462018967	100
131	3	0	0	0	1	0.279929161071777	1	1	477.679171085358	100
132	3	0	0	0	1	0.359486818313599	1	1	480.295039892197	300
133	3	0	0	0	2	0.473890066146851	1	2	483.110862016678	200
134	3	0	0	0	2	0.432375907897949	2	1	485.826606035233	100
135	3	1	0	0	1	0.851935863494873	1	1	488.442399978638	400
136	3	0	0	0	2	0.440131902694702	2	1	491.358230113983	500
137	3	0	0	0	2	0.487863063812256	2	1	494.373945951462	400
138	3	0	0	0	2	0.492402076721191	2	1	497.289638996124	500
139	3	0	1	0	1	0.733145952224731	1	1	500.305365085602	200
140	3	0	0	0	1	0.999056100845337	1	1	503.021055936813	400
141	3	0	0	0	1	0.341807126998901	1	1	505.936853885651	200
142	3	0	0	0	2	0.46594500541687	1	2	508.652580976486	200
143	3	0	1	0	2	0.747772932052612	2	1	511.368361949921	500
144	3	0	0	0	1	0.774432182312012	1	1	514.384152889252	400
145	3	1	0	0	2	0.410310983657837	2	1	517.29992389679	400
146	3	0	0	0	2	0.415207862854004	1	2	520.215563058853	100
147	3	0	0	0	1	0.564447164535522	1	1	522.831296920776	200
148	3	0	0	0	1	0.443403005599976	1	1	525.547110080719	300
149	3	1	0	0	1	0.627984046936035	1	1	528.362895965576	500
150	3	0	0	0	2	0.564682960510254	2	1	531.378669977188	300
151	3	0	0	0	1	0.468026876449585	1	1	534.194356918335	300
152	3	0	0	0	2	0.540077924728394	2	1	537.010101079941	400
153	3	0	0	0	1	0.648394107818604	1	1	539.92594408989	300
154	3	0	0	0	1	0.676213026046753	1	1	542.741563081741	300
155	3	0	0	0	1	0.385655879974365	2	2	545.557351112366	400
156	3	0	0	0	1	0.819182872772217	2	2	548.473112106323	400
157	3	0	0	0	1	0.442224979400635	1	1	551.388833045959	400
158	3	0	0	0	2	0.541795015335083	2	1	554.304627895355	200
159	3	0	0	0	2	0.48393988609314	2	1	557.020279884338	500
160	3	0	0	0	2	0.491631031036377	2	1	560.036123991013	200
161	3	0	0	0	2	0.30113697052002	2	1	562.751765012741	100
162	3	0	0	0	1	0.535584926605225	1	1	565.367558002472	500
163	3	1	0	0	2	0.640777111053467	2	1	568.383377075195	500
164	3	0	0	0	2	0.696403026580811	2	1	571.399066925049	500
165	3	0	0	0	1	0.415015935897827	2	2	574.41475892067	200
166	3	0	0	0	2	0.356704950332642	2	1	577.13046002388	100
167	3	0	0	0	1	0.428904056549072	1	1	579.746236085892	400
168	3	0	1	0	2	0.473217010498047	2	1	582.662070989609	500
169	3	0	0	0	1	0	0	99	585.677782058716	100
170	3	0	0	0	1	0.604578018188477	1	1	589.389774084091	500
171	3	0	0	0	1	0.590723991394043	1	1	592.409019947052	500
172	3	0	0	0	2	0.28745698928833	1	2	595.424707889557	200
173	3	0	0	0	1	0.544392108917236	1	1	598.140326976776	300
174	3	1	0	0	1	0	0	99	600.956111907959	300
175	3	0	0	0	2	0.50490403175354	2	1	604.658328056335	100
176	3	1	0	0	2	0	0	99	607.270687103271	300
177	3	0	0	0	1	0.743749141693115	1	1	610.97295999527	200
178	3	0	0	0	2	0.530499935150146	2	1	613.685316085815	100
179	3	0	0	0	1	0.321923017501831	2	2	616.301103115082	500
180	3	0	1	0	1	0.971786975860596	1	1	619.316915988922	200
181	4	0	0	0	1	0.634529113769531	1	1	711.736679077148	300
182	4	0	0	0	2	0.495938062667847	2	1	714.552747964859	200
183	4	0	0	0	1	0.465577125549316	1	1	717.26855301857	400
184	4	0	0	0	2	0.393330812454224	2	1	720.184329986572	300
185	4	0	0	0	2	0.485123872756958	2	1	723.000026941299	500
186	4	0	0	0	2	0.448476791381836	2	1	726.015744924545	300
187	4	0	0	0	1	0.432309150695801	1	1	728.831473112106	400
188	4	0	0	0	1	0.294534921646118	2	2	731.747222900391	400
189	4	0	1	0	2	0.650525093078613	2	1	734.662929058075	200
190	4	0	0	0	2	0.437777042388916	2	1	737.378669023514	200
191	4	0	0	0	1	0.418101072311401	2	2	740.094461917877	300
192	4	0	1	0	1	0.751245975494385	1	1	742.910201072693	500
193	4	0	0	0	1	0.546555042266846	1	1	745.926017045975	400
194	4	0	0	0	2	0.367372035980225	2	1	748.841695070267	100
195	4	0	0	0	2	0.439098119735718	2	1	751.457432031631	200
196	4	0	1	0	2	0.523687124252319	2	1	754.173266887665	500
197	4	0	0	0	2	0.444430112838745	2	1	757.189048051834	100
198	4	1	0	0	2	0.275860071182251	2	1	759.804826021194	400
199	4	0	0	0	1	0.542373895645142	1	1	762.720571041107	500
200	4	1	0	0	1	0.334343910217285	2	2	765.736285924911	200
201	4	0	0	0	1	0.585294961929321	1	1	768.451976060867	100
202	4	0	1	0	2	0.669239044189453	2	1	771.067733049393	500
203	4	0	0	0	2	0.525022983551025	2	1	774.083584070206	100
204	4	1	0	0	2	0.555772066116333	2	1	776.699270963669	300
205	4	0	0	0	1	0.395391941070557	1	1	779.51508808136	300
206	4	0	0	0	2	0.382612943649292	2	1	782.330847978592	200
207	4	0	0	0	1	0.450291872024536	1	1	785.046600103378	200
208	4	0	0	0	2	0.518898010253906	2	1	787.76239991188	500
209	4	0	0	0	1	0.556708097457886	1	1	790.778193950653	100
210	4	0	0	0	2	0.429365873336792	2	1	793.39387011528	100
211	4	0	0	0	1	0.407989978790283	1	1	796.009696006775	200
212	4	0	0	0	1	0.460180997848511	1	1	798.725526094437	500
213	4	0	0	0	2	0.507791996002197	2	1	801.741316080093	100
214	4	0	1	0	1	0.491903066635132	1	1	804.357000112534	500
215	4	0	0	0	2	0.373131036758423	2	1	807.372822999954	500
216	4	0	0	0	1	0.516906976699829	1	1	810.388591051102	500
217	4	0	0	0	2	0.365256071090698	2	1	813.404201984406	100
218	4	0	0	0	2	0.42098593711853	1	2	816.019892930984	100
219	4	0	0	0	1	0.619846105575562	1	1	818.635705947876	100
220	4	0	0	0	1	0.51084303855896	1	1	821.25154709816	200
221	4	1	0	0	1	0.499414920806885	1	1	823.967367887497	300
222	4	0	0	0	1	0.194748163223267	1	1	826.783163070679	200
223	4	0	0	0	1	0.381897926330566	1	1	829.498897075653	200
224	4	1	0	0	1	0.490880966186523	1	1	832.214673995972	300
225	4	0	0	0	1	0.347023010253906	1	1	835.030493974686	400
226	4	0	0	0	2	0.560909986495972	2	1	837.94625210762	300
227	4	0	0	0	1	0.495121002197266	1	1	840.761961936951	400
228	4	0	0	0	1	0.692169904708862	1	1	843.677733898163	300
229	4	0	0	0	1	0.500071048736572	1	1	846.493391036987	100
230	4	0	0	0	2	0.390321969985962	2	1	849.109215021133	100
231	4	0	0	0	2	0.475643873214722	2	1	851.725032091141	300
232	4	0	0	0	2	0.364974021911621	2	1	854.540854930878	500
233	4	0	0	0	2	0.293206930160522	2	1	857.556629896164	400
234	4	1	0	0	2	0.0157909393310547	2	1	860.472302913666	400
235	4	0	0	0	2	0.590075969696045	2	1	863.388029098511	200
236	4	0	0	0	2	0.37348484992981	2	1	866.103756904602	400
237	4	0	0	0	1	0.262286186218262	2	2	869.019548892975	400
238	4	0	0	0	2	0.618315935134888	1	2	871.935269117355	400
239	4	0	0	0	1	0.420989990234375	1	1	874.850990056992	500
240	4	0	1	0	1	0.551471948623657	1	1	877.866719961166	300
