TrialNum	Block	Odd: Visual	Odd: Audio	Odd: Haptic	CueDirection	RT	RespDirection	Acc	TrialTime	ITI
1	1	0	0	0	1	0.592535018920898	1	1	2.38418579101562e-05	200
2	1	0	0	0	2	0.445533037185669	2	1	3.18250799179077	400
3	1	0	0	0	2	0.443100929260254	2	1	6.09834384918213	500
4	1	0	1	0	2	0.459192991256714	2	1	9.11406397819519	200
5	1	0	0	0	1	0.444048881530762	1	1	11.8297679424286	200
6	1	0	0	0	2	0.364367961883545	2	1	14.5455198287964	500
7	1	0	0	0	1	0.437159061431885	1	1	17.5613207817078	200
8	1	0	0	0	1	0.568418025970459	1	1	20.2769849300385	400
9	1	0	0	0	2	0.467211008071899	2	1	23.1927428245544	300
10	1	0	0	0	1	0.421069860458374	1	1	26.0084788799286	500
11	1	0	0	0	1	0.461219072341919	1	1	29.0242447853088	300
12	1	0	0	0	2	0.474838018417358	2	1	31.8399348258972	300
13	1	0	0	0	1	0.515134811401367	1	1	34.6557109355927	400
14	1	0	0	0	2	0.392944812774658	2	1	37.5714478492737	300
15	1	0	0	0	2	0.440388917922974	2	1	40.3872539997101	300
16	1	0	1	0	1	0.37850022315979	1	1	43.2029187679291	500
17	1	0	0	0	2	0.490246057510376	2	1	46.2187149524689	100
18	1	0	0	0	1	0.376876831054688	1	1	48.8344039916992	100
19	1	0	0	0	2	0.451930046081543	2	1	51.4502120018005	100
20	1	0	0	0	1	0.431986093521118	1	1	54.0660498142242	200
21	1	1	0	0	2	0.535848140716553	1	2	56.781858921051	200
22	1	0	0	0	2	0.441036939620972	2	1	59.4976508617401	500
23	1	0	0	0	2	0.44092583656311	2	1	62.5134129524231	200
24	1	1	0	0	1	0.52850079536438	1	1	65.229122877121	300
25	1	0	0	0	2	0.473532199859619	2	1	68.0448927879333	200
26	1	0	0	0	1	0.460866928100586	1	1	70.7606739997864	300
27	1	0	0	0	2	0.431493997573853	2	1	73.5764429569244	100
28	1	0	0	0	1	0.458375930786133	1	1	76.1922218799591	100
29	1	0	0	0	2	0.463618993759155	2	1	78.8080558776855	400
30	1	0	0	0	2	0.434051990509033	2	1	81.723876953125	400
31	1	1	0	0	2	0.420357942581177	2	1	84.6396009922028	300
32	1	0	0	0	1	0.479276895523071	1	1	87.4554100036621	300
33	1	0	0	0	1	0.442324876785278	1	1	90.2710959911346	100
34	1	0	0	0	1	0.410900831222534	1	1	92.8868308067322	200
35	1	0	1	0	1	0.584537029266357	1	1	95.6026508808136	100
36	1	0	0	0	2	0.46596097946167	2	1	98.2184989452362	400
37	1	1	0	0	1	0.480200052261353	1	1	101.134257793427	500
38	1	0	0	0	2	0.45060396194458	2	1	104.149971961975	500
39	1	1	0	0	2	0.441442966461182	2	1	107.165680885315	200
40	1	0	0	0	1	0.445089101791382	1	1	109.881299972534	100
41	1	0	0	0	2	0.471282005310059	2	1	112.497091770172	200
42	1	0	0	0	1	0.409404039382935	1	1	115.212994813919	400
43	1	0	1	0	2	0.373424053192139	2	1	118.128757953644	100
44	1	0	0	0	2	0.445559024810791	2	1	120.74448299408	400
45	1	0	0	0	1	0.44257116317749	1	1	123.660302877426	400
46	1	0	0	0	1	0.430456876754761	1	1	126.576046943665	500
47	1	0	0	0	2	0.446990013122559	2	1	129.591761827469	400
48	1	0	1	0	1	0.433742046356201	1	1	132.507448911667	300
49	1	0	0	0	1	0.483798980712891	1	1	135.32324385643	400
50	1	0	0	0	2	0.463690042495728	2	1	138.238940954208	100
51	1	0	0	0	2	0.496476888656616	2	1	140.854663848877	400
52	1	0	0	0	1	0.468164920806885	1	1	143.770476818085	200
53	1	1	0	0	1	0.512417078018188	1	1	146.486121892929	300
54	1	0	0	0	1	0.471729040145874	1	1	149.301981925964	500
55	1	0	0	0	1	0.487820863723755	1	1	152.317762851715	500
56	1	0	0	0	2	0.473631143569946	2	1	155.33340883255	500
57	1	0	0	0	2	0.449337005615234	2	1	158.349097967148	300
58	1	0	0	0	1	0.454206943511963	1	1	161.164821863174	100
59	1	0	1	0	2	0.41585898399353	2	1	163.780553817749	100
60	1	0	0	0	1	0.442554950714111	1	1	166.39640378952	500
61	2	0	0	0	1	0.441827058792114	1	1	181.724595785141	500
62	2	0	0	0	1	0.458020925521851	1	1	184.740639925003	500
63	2	0	0	0	2	0.474989891052246	2	1	187.756341934204	400
64	2	0	0	0	2	0.423271894454956	2	1	190.672041893005	100
65	2	0	0	0	1	0.431212186813354	1	1	193.287766933441	100
66	2	0	0	0	2	0.467278957366943	2	1	195.903584957123	300
67	2	0	0	0	1	0.447149991989136	1	1	198.719405889511	500
68	2	0	1	0	2	0.391637086868286	2	1	201.735243797302	300
69	2	0	0	0	2	0.407744169235229	2	1	204.550858974457	200
70	2	0	0	0	1	0.444506168365479	1	1	207.266598939896	200
71	2	0	0	0	2	0.463020086288452	2	1	209.98240685463	500
72	2	0	1	0	2	0.397508859634399	2	1	212.998173952103	300
73	2	0	0	0	1	0.47965407371521	1	1	215.813882827759	400
74	2	0	0	0	2	0.478039026260376	2	1	218.7295358181	400
75	2	0	0	0	1	0.465438842773438	1	1	221.645345926285	500
76	2	0	0	0	1	0.746160984039307	1	1	224.661108970642	500
77	2	0	0	0	2	0.466371059417725	2	1	227.676759958267	500
78	2	1	0	0	1	0.506787061691284	1	1	230.692444801331	100
79	2	0	0	0	2	0.451029062271118	2	1	233.30810880661	500
80	2	0	1	0	2	0.449683904647827	2	1	236.323953866959	200
81	2	0	0	0	1	0.748340129852295	1	1	239.039629936218	100
82	2	0	0	0	2	0.682011127471924	2	1	241.655380964279	300
83	2	0	0	0	1	0.432572841644287	1	1	244.471303939819	200
84	2	0	0	0	2	0.452184915542603	2	1	247.186988830566	200
85	2	0	0	0	2	0.392348051071167	2	1	249.902800798416	400
86	2	0	1	0	1	0.436702013015747	1	1	252.818591833115	300
87	2	0	0	0	2	0.413007020950317	2	1	255.634319782257	400
88	2	0	0	0	1	0.41010594367981	1	1	258.550073862076	100
89	2	0	0	0	2	0.433263063430786	2	1	261.165803909302	400
90	2	0	0	0	1	0.454119920730591	1	1	264.08161687851	400
91	2	0	0	0	2	0.490360975265503	2	1	266.997344970703	400
92	2	0	0	0	2	0.422567844390869	2	1	269.913086891174	300
93	2	0	0	0	2	0.398639917373657	2	1	272.728786945343	500
94	2	0	0	0	2	0.454095840454102	2	1	275.74453997612	500
95	2	0	0	0	1	0.488023996353149	1	1	278.760242938995	300
96	2	0	0	0	1	0.407878875732422	1	1	281.575939893723	300
97	2	1	0	0	1	0.503818988800049	1	1	284.391675949097	200
98	2	0	0	0	2	0.473510980606079	2	1	287.107449769974	100
99	2	0	0	0	2	0.444658994674683	2	1	289.723303794861	100
100	2	0	0	0	1	0.500591039657593	1	1	292.339115858078	300
101	2	0	0	0	2	0.589405059814453	2	1	295.154869794846	200
102	2	0	0	0	1	0.53700590133667	1	1	297.870624780655	200
103	2	0	0	0	2	0.396582841873169	2	1	300.586429834366	300
104	2	1	0	0	2	0.501688003540039	2	1	303.402255773544	200
105	2	0	0	0	1	0.507184028625488	1	1	306.117985963821	500
106	2	1	0	0	2	0.481609106063843	2	1	309.133768796921	100
107	2	0	0	0	2	0.537580013275146	2	1	311.749446868896	400
108	2	0	1	0	1	0.484030961990356	1	1	314.66526889801	200
109	2	0	0	0	1	0.442728996276855	1	1	317.380988836288	500
110	2	1	0	0	1	0.467544078826904	1	1	320.396800994873	100
111	2	0	0	0	1	0.435410022735596	1	1	323.012470960617	200
112	2	0	0	0	2	0.377532958984375	2	1	325.72829580307	200
113	2	0	0	0	1	0.543630123138428	1	1	328.444084882736	100
114	2	1	0	0	2	0.587759971618652	2	1	331.060009002686	400
115	2	0	0	0	2	0.46319317817688	2	1	333.975688934326	100
116	2	0	0	0	1	0.470720767974854	1	1	336.591425895691	300
117	2	0	0	0	1	0.424941062927246	1	1	339.407253980637	100
118	2	0	1	0	1	0.4412841796875	2	2	342.023014783859	400
119	2	0	0	0	1	0.443757057189941	1	1	344.938816785812	300
120	2	0	0	0	1	0.379372119903564	1	1	347.754575967789	400
121	3	0	0	0	1	0.395756006240845	1	1	362.899430990219	300
122	3	0	0	0	1	0.412822961807251	1	1	365.715418815613	100
123	3	1	0	0	1	0.365175008773804	1	1	368.331224918365	300
124	3	0	0	0	1	0.333415031433105	1	1	371.147010803223	200
125	3	0	0	0	1	0.394018173217773	1	1	373.862742900848	200
126	3	0	0	0	2	0.563447952270508	2	1	376.578509807587	200
127	3	0	0	0	2	0.426668882369995	2	1	379.294320821762	500
128	3	0	0	0	1	0.466460943222046	1	1	382.310130834579	500
129	3	0	0	0	2	0.463476896286011	2	1	385.3258228302	500
130	3	0	0	0	1	0.419232845306396	1	1	388.341498851776	100
131	3	0	0	0	2	0.463904857635498	2	1	390.95721578598	500
132	3	0	0	0	1	0.404146909713745	1	1	393.973028898239	500
133	3	0	0	0	1	0.435766935348511	1	1	396.988717794418	500
134	3	1	0	0	1	0.492425918579102	1	1	400.004423856735	200
135	3	0	0	0	1	0.425623893737793	1	1	402.720108985901	100
136	3	0	0	0	2	0.477612018585205	2	1	405.335895776749	300
137	3	0	0	0	2	0.44988489151001	2	1	408.151716947556	400
138	3	0	0	0	2	0.514625072479248	2	1	411.067471981049	300
139	3	0	0	0	2	0.56765604019165	2	1	413.883239984512	100
140	3	0	0	0	2	0.470041990280151	2	1	416.498962879181	400
141	3	0	0	0	1	0.479086875915527	1	1	419.414705991745	100
142	3	0	1	0	1	0.503000020980835	1	1	422.03047990799	300
143	3	0	0	0	1	0.404639959335327	1	1	424.846374988556	400
144	3	0	0	0	1	0.430724859237671	1	1	427.762088775635	100
145	3	0	1	0	1	0.407219171524048	1	1	430.377782821655	300
146	3	0	0	0	2	0.487543106079102	2	1	433.19365477562	400
147	3	0	0	0	1	0.501402854919434	1	1	436.10936498642	400
148	3	0	1	0	2	0.537052869796753	2	1	439.025036811829	200
149	3	0	0	0	2	0.444153070449829	2	1	441.740827798843	500
150	3	0	0	0	1	0.509675979614258	1	1	444.756633996964	100
151	3	0	0	0	2	0.452046155929565	2	1	447.372312784195	300
152	3	0	0	0	1	0.489145040512085	1	1	450.188151836395	200
153	3	0	1	0	2	0.466168880462646	2	1	452.903874874115	500
154	3	0	0	0	1	0.417310953140259	1	1	455.919698953629	300
155	3	1	0	0	2	0.449161052703857	2	1	458.73536491394	400
156	3	0	0	0	1	0.419271945953369	1	1	461.651174783707	100
157	3	0	0	0	2	0.518370151519775	2	1	464.266790866852	500
158	3	0	0	0	2	0.470587015151978	2	1	467.282671928406	300
159	3	1	0	0	1	0.495797872543335	1	1	470.098372936249	400
160	3	0	0	0	2	0.54578685760498	2	1	473.014123916626	200
161	3	1	0	0	2	0.492945194244385	2	1	475.729858875275	100
162	3	0	0	0	2	0.447322845458984	2	1	478.345629930496	300
163	3	0	1	0	2	0.479588985443115	2	1	481.161459922791	200
164	3	0	0	0	1	0.747107982635498	1	1	483.877210855484	400
165	3	0	1	0	1	0.401772975921631	1	1	486.793021917343	400
166	3	0	0	0	1	0.421136140823364	1	1	489.708751916885	100
167	3	0	0	0	1	0	0	99	492.324463844299	400
168	3	0	0	0	2	0.833755970001221	2	1	495.994292974472	200
169	3	0	0	0	1	0.656531810760498	1	1	498.70574593544	500
170	3	0	0	0	1	0.474099159240723	1	1	501.721568822861	300
171	3	1	0	0	2	0.480202913284302	2	1	504.537237882614	100
172	3	0	0	0	2	0.484029054641724	2	1	507.153001785278	200
173	3	0	0	0	2	0.451786994934082	2	1	509.868837833405	200
174	3	0	0	0	1	0.501909971237183	1	1	512.584538936615	400
175	3	0	0	0	2	0.499983072280884	2	1	515.500414848328	100
176	3	0	0	0	2	0.445120096206665	2	1	518.116137981415	200
177	3	0	0	0	1	0.530195951461792	1	1	520.831961870193	500
178	3	0	0	0	2	0.42685604095459	2	1	523.847787857056	300
179	3	0	0	0	2	0.418200016021729	2	1	526.663424968719	400
180	3	0	0	0	2	0.486328125	2	1	529.579260826111	500
181	4	0	0	0	2	0.457785844802856	2	1	550.688663005829	300
182	4	0	0	0	1	0.445010900497437	1	1	553.504698991776	200
183	4	0	0	0	1	0.366353034973145	1	1	556.220463991165	100
184	4	0	0	0	1	0.32566499710083	1	1	558.836233854294	400
185	4	0	0	0	1	0.554181098937988	1	1	561.752068996429	500
186	4	0	0	0	1	0.412556886672974	1	1	564.76779294014	100
187	4	0	0	0	2	0.44255805015564	2	1	567.383457899094	100
188	4	0	0	0	2	0.40081000328064	2	1	569.999248981476	300
189	4	0	0	0	1	0.410802125930786	1	1	572.815163850784	200
190	4	0	0	0	1	0.431335926055908	1	1	575.530818939209	500
191	4	0	0	0	2	0.455236911773682	2	1	578.54661488533	100
192	4	0	0	0	2	0.453734159469604	2	1	581.162281990051	500
193	4	0	0	0	2	0.409073114395142	2	1	584.178111791611	100
194	4	0	0	0	2	0.42408013343811	2	1	586.793802976608	500
195	4	0	0	0	1	0.505214929580688	1	1	589.80961894989	100
196	4	0	0	0	1	0.46442699432373	1	1	592.425265789032	200
197	4	1	0	0	2	0.469031095504761	2	1	595.141201972961	300
198	4	0	0	0	2	0.493622064590454	2	1	597.956918001175	200
199	4	0	0	0	2	0.497639894485474	2	1	600.672627925873	400
200	4	0	0	0	2	0.438064098358154	2	1	603.588455915451	300
201	4	0	0	0	1	0.414355993270874	1	1	606.404253005981	400
202	4	1	0	0	1	0.610113143920898	1	1	609.319923877716	300
203	4	0	0	0	2	0.468472003936768	2	1	612.135702848434	200
204	4	0	0	0	1	0.456497192382812	1	1	614.851383924484	400
205	4	0	0	0	1	0.483819961547852	1	1	617.767266988754	100
206	4	1	0	0	1	0.454702138900757	1	1	620.382889986038	100
207	4	0	0	0	1	0.395242929458618	1	1	622.998713970184	200
208	4	0	0	0	2	0.499595880508423	2	1	625.714491844177	400
209	4	1	0	0	1	0.468218088150024	1	1	628.630311965942	300
210	4	0	0	0	1	0.447420835494995	1	1	631.446016788483	400
211	4	0	1	0	1	0.41617488861084	1	1	634.361770868301	400
212	4	0	0	0	2	0.541202068328857	2	1	637.27748799324	200
213	4	0	0	0	1	0.417526006698608	1	1	639.993199825287	200
214	4	0	1	0	2	0.46100902557373	2	1	642.709006786346	300
215	4	0	0	0	2	0.501453161239624	2	1	645.524783849716	400
216	4	0	0	0	2	0.362539052963257	2	1	648.440544843674	400
217	4	0	1	0	2	0.510738849639893	2	1	651.356259822845	300
218	4	0	0	0	1	0.502387046813965	1	1	654.171941995621	100
219	4	0	0	0	1	0.535166025161743	1	1	656.787714004517	200
220	4	0	0	0	2	0.509917974472046	2	1	659.503554821014	300
221	4	0	0	0	1	0.451367855072021	1	1	662.319312810898	300
222	4	0	1	0	1	0.515385866165161	1	1	665.135008811951	400
223	4	0	0	0	2	0.531297922134399	2	1	668.050832986832	500
224	4	1	0	0	2	0.448762893676758	2	1	671.066531896591	100
225	4	0	0	0	2	0.440325975418091	2	1	673.68220281601	500
226	4	1	0	0	2	0.489345073699951	2	1	676.698061943054	500
227	4	0	0	0	2	0.462141036987305	2	1	679.713744878769	400
228	4	0	0	0	2	0.543873071670532	2	1	682.629422903061	200
229	4	0	1	0	1	0.53916597366333	1	1	685.345113992691	300
230	4	0	0	0	1	0.474158048629761	1	1	688.16090798378	100
231	4	0	0	0	1	0.401628017425537	1	1	690.77669095993	500
232	4	0	0	0	2	0.519438028335571	2	1	693.792503833771	300
233	4	0	0	0	2	0.482332944869995	2	1	696.6082508564	500
234	4	0	0	0	1	0.449099063873291	1	1	699.623950958252	400
235	4	0	0	0	1	0.399348974227905	1	1	702.539626836777	500
236	4	0	0	0	2	0.492177963256836	2	1	705.555343866348	500
237	4	0	0	0	2	0.743910789489746	2	1	708.570985794067	100
238	4	0	0	0	1	0.452262878417969	1	1	711.186706781387	500
239	4	0	0	0	1	0.456342935562134	1	1	714.202536821365	200
240	4	0	1	0	2	0.467210054397583	1	2	716.918227910995	200
