TrialNum	Block	Odd: Visual	Odd: Audio	Odd: Haptic	CueDirection	RT	RespDirection	Acc	TrialTime	ITI
1	1	0	0	0	1	0.149747133255005	2	2	2.00271606445312e-05	400
2	1	0	0	0	1	0.84946084022522	1	1	2.91603398323059	100
3	1	0	0	0	2	0	0	99	5.53178000450134	500
4	1	0	0	0	2	0.869774103164673	2	1	9.22799682617188	500
5	1	0	0	0	2	0.674237012863159	2	1	12.2464129924774	300
6	1	0	1	0	1	0.548453807830811	1	1	15.0620918273926	500
7	1	0	0	0	1	0.491827011108398	2	2	18.0778408050537	300
8	1	0	0	0	2	0.716061115264893	2	1	20.8935058116913	100
9	1	1	0	0	2	0	0	99	23.5092618465424	300
10	1	0	0	0	1	0.603767156600952	1	1	27.1511218547821	500
11	1	0	0	0	1	0.716381072998047	1	1	30.1738998889923	200
12	1	0	0	0	1	0.584221124649048	1	1	32.8895909786224	300
13	1	0	0	0	2	0.814718961715698	2	1	35.7053718566895	200
14	1	0	1	0	1	0.635063886642456	1	1	38.4211277961731	100
15	1	0	0	0	2	0	0	99	41.0370478630066	200
16	1	0	0	0	1	0.539479970932007	1	1	44.6997368335724	500
17	1	0	1	0	2	0.563363075256348	2	1	47.7182250022888	100
18	1	0	0	0	2	0.891847133636475	2	1	50.3338539600372	100
19	1	0	0	0	1	0.556002140045166	1	1	52.9496939182281	400
20	1	0	0	0	2	0.648913145065308	2	1	55.8655428886414	400
21	1	0	0	0	1	0.475064992904663	1	1	58.7812747955322	200
22	1	0	0	0	2	0.118651151657104	2	1	61.4969928264618	500
23	1	0	0	0	2	0.616111040115356	1	2	64.5127949714661	400
24	1	1	0	0	2	0.917521953582764	2	1	67.428466796875	400
25	1	0	0	0	1	0.57020378112793	1	1	70.3441829681396	200
26	1	0	0	0	2	0.615200042724609	2	1	73.0599298477173	100
27	1	0	0	0	1	0.40715503692627	1	1	75.6756958961487	100
28	1	0	0	0	1	0.0949208736419678	2	2	78.2915308475494	200
29	1	0	0	0	1	0.594686031341553	1	1	81.0073938369751	400
30	1	0	0	0	1	0.783562898635864	1	1	83.923131942749	200
31	1	0	0	0	2	0.704685211181641	2	1	86.6388378143311	500
32	1	0	0	0	1	0.569766998291016	1	1	89.6546349525452	200
33	1	0	0	0	1	0.73026704788208	1	1	92.3703429698944	200
34	1	1	0	0	2	0.740364074707031	2	1	95.0861239433289	200
35	1	0	0	0	1	0.96710205078125	1	1	97.8018929958344	400
36	1	0	0	0	1	0	0	99	100.717674970627	500
37	1	1	0	0	1	0.770390033721924	1	1	104.406200885773	400
38	1	0	0	0	2	0.598923921585083	2	1	107.315555810928	400
39	1	0	1	0	1	0.66058087348938	1	1	110.231305837631	300
40	1	0	0	0	1	0.866917848587036	2	2	113.046998023987	200
41	1	0	0	0	2	0.743659019470215	2	1	115.762759923935	500
42	1	0	0	0	2	0.741976976394653	2	1	118.77855181694	300
43	1	0	0	0	1	0.776169061660767	1	1	121.594242811203	300
44	1	0	0	0	2	0.656608819961548	2	1	124.409997940063	500
45	1	0	0	0	1	0.573212146759033	1	1	127.425748825073	100
46	1	1	0	0	1	0	0	99	130.041442871094	400
47	1	0	0	0	2	0.518625974655151	2	1	133.738967895508	100
48	1	0	0	0	2	0.719717025756836	2	1	136.356064796448	100
49	1	0	0	0	2	0.521437883377075	2	1	138.971853017807	300
50	1	0	0	0	2	0.600028991699219	2	1	141.787705898285	300
51	1	1	0	0	1	0.568125009536743	1	1	144.603462934494	100
52	1	0	0	0	2	0.801851987838745	2	1	147.219257831573	100
53	1	0	0	0	2	0.382236003875732	1	2	149.835016965866	500
54	1	0	1	0	2	0.97320294380188	2	1	152.850862979889	400
55	1	0	0	0	1	0.684597969055176	1	1	155.76658987999	300
56	1	0	0	0	2	0.694952964782715	2	1	158.582213878632	500
57	1	0	1	0	2	0.772228956222534	1	2	161.598022937775	400
58	1	0	0	0	2	0.658595085144043	2	1	164.513710975647	300
59	1	0	0	0	1	0.913532972335815	1	1	167.329440832138	300
60	1	0	0	0	1	0.705981016159058	1	1	170.145188808441	200
61	2	0	0	0	2	0.449259042739868	1	2	208.265926837921	100
62	2	0	0	0	2	0.593353033065796	2	1	210.88197684288	300
63	2	1	0	0	1	0.66728401184082	1	1	213.697798967361	300
64	2	0	0	0	1	0.850986003875732	1	1	216.513547897339	500
65	2	0	1	0	1	0.693107128143311	1	1	219.529232025146	100
66	2	0	0	0	1	0.657919883728027	1	1	222.144971847534	200
67	2	0	1	0	2	0.92499303817749	2	1	224.860819816589	400
68	2	0	0	0	1	0.671740055084229	1	1	227.776609897614	500
69	2	0	0	0	2	0.609476089477539	2	1	230.792338848114	400
70	2	0	1	0	2	0.991310119628906	2	1	233.708029985428	400
71	2	0	0	0	1	0.931889057159424	1	1	236.62374997139	500
72	2	0	0	0	1	0.88401198387146	1	1	239.639480829239	200
73	2	0	0	0	2	0.449887037277222	2	1	242.355134010315	100
74	2	0	0	0	1	0.609551906585693	1	1	244.970947980881	200
75	2	0	0	0	1	0.684676885604858	1	1	247.686717987061	500
76	2	0	0	0	1	0.635228872299194	1	1	250.702521800995	400
77	2	0	0	0	1	0.817732095718384	1	1	253.618208885193	100
78	2	0	0	0	2	0.866846799850464	2	1	256.233904838562	300
79	2	0	0	0	1	0.722101926803589	1	1	259.049747943878	100
80	2	0	0	0	1	0.778824090957642	2	2	261.665479898453	500
81	2	1	0	0	1	0.78467321395874	1	1	264.681330919266	200
82	2	0	0	0	1	0.942826986312866	1	1	267.397020816803	200
83	2	0	0	0	1	0	0	99	270.112808942795	100
84	2	1	0	0	2	0	0	99	273.826495885849	500
85	2	0	0	0	2	0.670152902603149	2	1	277.464234828949	100
86	2	0	0	0	2	0.7294020652771	2	1	280.07621884346	400
87	2	0	0	0	2	0.424040079116821	2	1	282.992038965225	400
88	2	0	0	0	2	0.224453210830688	2	1	285.907755851746	300
89	2	0	1	0	1	0.70409107208252	1	1	288.723393917084	400
90	2	0	0	0	1	0.924998044967651	1	1	291.639254808426	200
91	2	0	0	0	1	0.657156944274902	1	1	294.354964017868	200
92	2	0	0	0	2	0.821524858474731	2	1	297.070738792419	100
93	2	0	1	0	2	0.59840989112854	1	2	299.686499834061	400
94	2	0	0	0	2	0.658168077468872	2	1	302.602329015732	500
95	2	0	0	0	2	0.651091814041138	2	1	305.618119001389	300
96	2	0	0	0	2	0.35475492477417	2	1	308.433766841888	200
97	2	0	0	0	1	0.832740068435669	1	1	311.149508953094	400
98	2	0	0	0	1	0.899643182754517	1	1	314.06530880928	200
99	2	0	0	0	2	0	0	99	316.780997991562	500
100	2	0	0	0	2	0.708487987518311	2	1	320.483461856842	500
101	2	0	0	0	1	0.461230039596558	2	2	323.495616912842	200
102	2	0	0	0	2	0	0	99	326.211372852325	500
103	2	0	1	0	1	0.51623797416687	1	1	329.909466028214	100
104	2	0	0	0	2	0	0	99	332.525901794434	300
105	2	0	0	0	1	0.703358888626099	1	1	335.942605018616	300
106	2	0	0	0	2	0.318496942520142	2	1	338.757284879684	500
107	2	0	0	0	1	0.631680011749268	1	1	341.773036003113	300
108	2	0	0	0	2	0.553096055984497	2	1	344.588711023331	100
109	2	0	0	0	1	0.472957134246826	1	1	347.204481840134	200
110	2	1	0	0	1	0.0767159461975098	2	2	349.920305967331	400
111	2	0	0	0	2	0.72145414352417	2	1	352.836087942123	200
112	2	0	0	0	2	0.734396934509277	2	1	355.551789999008	400
113	2	0	0	0	1	0.577167987823486	1	1	358.467602014542	300
114	2	0	0	0	1	0.85811710357666	1	1	361.283394813538	300
115	2	0	0	0	2	0.930440902709961	2	1	364.099084854126	100
116	2	0	0	0	2	0.88831615447998	2	1	366.714836835861	100
117	2	1	0	0	2	0	0	99	369.330618858337	300
118	2	0	0	0	1	0.566234827041626	1	1	373.039356946945	500
119	2	0	0	0	2	0.632865905761719	2	1	376.061925888062	300
120	2	1	0	0	2	0.988234996795654	2	1	378.87762594223	400
121	3	0	0	0	2	0.654376983642578	2	1	425.229007959366	200
122	3	1	0	0	1	0.645385026931763	1	1	427.945020914078	500
123	3	0	0	0	1	0.721029996871948	1	1	430.960831880569	400
124	3	0	0	0	1	0.721649169921875	1	1	433.876514911652	400
125	3	1	0	0	2	0.923940181732178	2	1	436.792340993881	300
126	3	0	0	0	2	0.611799955368042	2	1	439.607940912247	300
127	3	0	0	0	1	0.949826002120972	1	1	442.423719882965	400
128	3	0	0	0	2	0	0	99	445.339484930038	400
129	3	0	0	0	1	0.655294895172119	1	1	449.041232824326	300
130	3	0	1	0	1	0.65554404258728	1	1	451.853992938995	300
131	3	0	0	0	1	0	0	99	454.669788837433	300
132	3	0	0	0	1	0	0	99	458.292945861816	200
133	3	0	0	0	1	0.733078956604004	1	1	461.984361886978	100
134	3	0	0	0	1	0.213479042053223	1	1	464.599797010422	300
135	3	0	0	0	1	0.678023815155029	2	2	467.415630817413	100
136	3	1	0	0	1	0.679813861846924	1	1	470.03141784668	500
137	3	0	0	0	2	0.726868152618408	2	1	473.047285795212	400
138	3	0	0	0	2	0	0	99	475.962888002396	100
139	3	0	0	0	1	0.595399856567383	1	1	479.609866857529	200
140	3	0	1	0	2	0	0	99	482.327442884445	500
141	3	0	0	0	2	0.40381908416748	1	2	486.032168865204	200
142	3	0	0	0	1	0.720727205276489	2	2	488.741986989975	400
143	3	0	0	0	2	0.442451953887939	1	2	491.657820940018	500
144	3	0	0	0	2	0.129981994628906	2	1	494.673547029495	500
145	3	0	0	0	1	0.524739027023315	1	1	497.68922996521	400
146	3	0	0	0	2	0.624910831451416	2	1	500.604924917221	200
147	3	0	0	0	2	0.846652984619141	2	1	503.320644855499	500
148	3	0	0	0	2	0.799565076828003	2	1	506.336426973343	300
149	3	0	0	0	2	0.696237087249756	2	1	509.152097940445	200
150	3	0	0	0	2	0.914373874664307	2	1	511.867873907089	100
151	3	0	0	0	2	0.618165016174316	2	1	514.483731985092	100
152	3	0	1	0	1	0	0	99	517.099440813065	500
153	3	0	0	0	1	0.788534879684448	1	1	520.78470993042	100
154	3	1	0	0	1	0.680716037750244	1	1	523.39744591713	500
155	3	0	0	0	1	0	0	99	526.413259029388	400
156	3	0	0	0	1	0.462793827056885	1	1	530.073355913162	500
157	3	0	0	0	1	0.514803886413574	1	1	533.094424962997	500
158	3	0	1	0	1	0.608034133911133	1	1	536.110118865967	100
159	3	0	0	0	1	0.910275936126709	1	1	538.725772857666	300
160	3	0	1	0	2	0.956270933151245	2	1	541.54160785675	200
161	3	0	0	0	2	0	0	99	544.257354021072	100
162	3	0	1	0	2	0	0	99	547.739725828171	200
163	3	0	0	0	1	0.921506881713867	1	1	551.410439014435	200
164	3	0	0	0	2	0.669116020202637	2	1	554.120839834213	400
165	3	0	0	0	2	0.633571147918701	2	1	557.036650896072	200
166	3	0	0	0	1	0.614078998565674	1	1	559.752342939377	400
167	3	0	0	0	2	0.554558992385864	2	1	562.668171882629	100
168	3	1	0	0	2	0.874933958053589	2	1	565.283885002136	100
169	3	0	0	0	2	0.682921171188354	1	2	567.899704933167	300
170	3	0	0	0	1	0.671786069869995	1	1	570.715515851974	400
171	3	0	0	0	1	0.930176973342896	1	1	573.631348848343	500
172	3	0	0	0	1	0.815524101257324	1	1	576.647001981735	100
173	3	1	0	0	2	0.839076995849609	2	1	579.262664794922	300
174	3	0	0	0	2	0.880571126937866	1	2	582.07851600647	500
175	3	0	0	0	1	0	0	99	585.094321012497	200
176	3	0	0	0	2	0.50235390663147	2	1	588.774537801743	100
177	3	0	0	0	2	0.607127904891968	1	2	591.39210486412	300
178	3	0	0	0	2	0.576240062713623	2	1	594.207921981812	200
179	3	0	0	0	2	0.434775114059448	2	1	596.923681020737	300
180	3	0	0	0	1	0.273356914520264	2	2	599.739424943924	400
181	4	0	0	0	1	0.616241931915283	1	1	621.715510845184	500
182	4	0	0	0	1	0.000574827194213867	2	2	624.731501817703	200
183	4	0	0	0	2	0.774386167526245	2	1	627.447289943695	100
184	4	0	0	0	2	0.672361135482788	2	1	630.063005924225	300
185	4	0	0	0	2	0.680417060852051	2	1	632.878834009171	500
186	4	0	1	0	1	0.664690971374512	1	1	635.894596815109	100
187	4	0	0	0	1	0.600771903991699	1	1	638.510280847549	500
188	4	0	0	0	2	0.836827039718628	2	1	641.526110887527	200
189	4	0	0	0	2	0.577123165130615	1	2	644.241827964783	200
190	4	0	0	0	2	0	0	99	646.957640886307	500
191	4	0	0	0	2	0.173937082290649	2	1	650.6335709095	200
192	4	0	0	0	1	0.730096101760864	1	1	653.355582952499	500
193	4	0	0	0	2	0.734665870666504	2	1	656.37145781517	200
194	4	0	0	0	2	0.400620937347412	1	2	659.087087869644	400
195	4	0	0	0	2	0.826418876647949	2	1	662.002815008163	300
196	4	0	0	0	1	0	0	99	664.818614959717	400
197	4	0	1	0	2	0.476965188980103	2	1	668.133651018143	500
198	4	0	0	0	2	0.822391986846924	2	1	671.149986028671	300
199	4	1	0	0	2	0.94991397857666	2	1	673.965776920319	300
200	4	0	0	0	1	0.867062091827393	1	1	676.781487941742	300
201	4	1	0	0	1	0.674406051635742	1	1	679.597213983536	100
202	4	0	0	0	2	0.8487548828125	2	1	682.212986946106	400
203	4	0	1	0	1	0.42367696762085	1	1	685.128805875778	400
204	4	0	0	0	2	0.625093936920166	2	1	688.044541835785	300
205	4	0	0	0	1	0.537259101867676	1	1	690.860207796097	300
206	4	0	0	0	1	0.307004928588867	2	2	693.676042795181	100
207	4	1	0	0	2	0.650293827056885	2	1	696.291832923889	200
208	4	0	0	0	2	0.262205123901367	2	1	699.007560968399	200
209	4	0	0	0	1	0.410614013671875	1	1	701.723375797272	400
210	4	0	0	0	1	0.00108599662780762	2	2	704.639290809631	300
211	4	1	0	0	2	0.889218091964722	2	1	707.454967975616	200
212	4	0	0	0	2	0.565393924713135	2	1	710.17073392868	100
213	4	0	0	0	2	0.421746015548706	2	1	712.786525964737	500
214	4	0	0	0	2	0.676959037780762	2	1	715.802428007126	500
215	4	0	0	0	2	0	0	99	718.818141937256	400
216	4	0	0	0	2	0.624413013458252	2	1	722.199026823044	400
217	4	1	0	0	1	0.428824186325073	2	2	725.116006851196	100
218	4	0	0	0	2	0.759017944335938	2	1	727.731704950333	100
219	4	0	0	0	1	0.792665004730225	1	1	730.347607851028	100
220	4	0	0	0	1	0.658937931060791	1	1	732.963512897491	400
221	4	0	0	0	2	0.929111957550049	2	1	735.879361867905	500
222	4	0	0	0	2	0	0	99	738.894954919815	400
223	4	0	0	0	1	0.587260961532593	1	1	742.244653940201	300
224	4	0	0	0	1	0.242870092391968	2	2	745.059623003006	100
225	4	0	1	0	2	0.937734842300415	2	1	747.675372838974	500
226	4	0	0	0	1	0.737008094787598	1	1	750.691241979599	300
227	4	0	0	0	1	0	0	99	753.506902933121	300
228	4	1	0	0	1	0.888643026351929	1	1	756.962100982666	300
229	4	0	0	0	1	0.16130805015564	2	2	759.771446943283	400
230	4	0	1	0	1	0.793421983718872	2	2	762.687305927277	500
231	4	0	0	0	2	0.977731943130493	2	1	765.703058004379	100
232	4	0	0	0	1	0.986475944519043	2	2	768.318683862686	500
233	4	0	1	0	2	0	0	99	771.334553003311	200
234	4	0	0	0	1	0	0	99	774.987076997757	400
235	4	0	0	0	1	0.589833974838257	2	2	778.654989957809	200
236	4	0	0	0	1	0.54829216003418	1	1	781.364578962326	100
237	4	0	0	0	1	0.604727029800415	1	1	783.980362892151	100
238	4	0	0	0	1	0.650269031524658	1	1	786.596180915833	200
239	4	0	0	0	2	0.842209815979004	1	2	789.312004804611	400
240	4	0	0	0	1	0.787565946578979	1	1	792.227821826935	200
