TrialNum	Block	Odd: Visual	Odd: Audio	Odd: Haptic	CueDirection	RT	RespDirection	Acc	TrialTime	ITI
1	1	0	0	0	1	0.402704000473022	1	1	2.88486480712891e-05	300
2	1	0	0	0	1	0.468797922134399	1	1	2.81585097312927	500
3	1	0	0	0	2	0.438460111618042	2	1	5.83161687850952	200
4	1	0	0	0	1	0.432459115982056	1	1	8.54736399650574	400
5	1	0	0	0	1	0.525141954421997	1	1	11.463171005249	300
6	1	0	0	0	2	0.405648946762085	2	1	14.2789649963379	300
7	1	0	0	0	2	0.453981161117554	2	1	17.0947787761688	200
8	1	1	0	0	1	0.433471918106079	1	1	19.8105487823486	100
9	1	0	0	0	1	0.460006952285767	1	1	22.4263818264008	100
10	1	0	0	0	1	0.442326068878174	1	1	25.042261838913	100
11	1	0	0	0	1	0.37066912651062	1	1	27.6581099033356	300
12	1	0	0	0	2	0.547793865203857	2	1	30.4739809036255	500
13	1	0	0	0	1	0.611012935638428	1	1	33.4897809028625	200
14	1	1	0	0	2	0.622612953186035	2	1	36.2055368423462	100
15	1	0	0	0	1	0.727911949157715	1	1	38.8213667869568	500
16	1	0	1	0	1	0.743216991424561	1	1	41.8372337818146	100
17	1	0	0	0	2	0.622967958450317	2	1	44.4529459476471	200
18	1	1	0	0	1	0.463182926177979	1	1	47.1688377857208	400
19	1	0	0	0	2	0.478434085845947	2	1	50.0846688747406	300
20	1	0	0	0	2	0.478946208953857	2	1	52.9004428386688	300
21	1	0	1	0	1	0.576054096221924	1	1	55.7162439823151	400
22	1	0	0	0	1	0.58806586265564	1	1	58.6320397853851	300
23	1	0	0	0	1	0.517037153244019	1	1	61.4478149414062	500
24	1	0	0	0	1	0.421164035797119	1	1	64.4636149406433	400
25	1	0	0	0	2	0.493645906448364	2	1	67.3793299198151	400
26	1	0	0	0	1	0.430382966995239	1	1	70.2951238155365	100
27	1	0	0	0	2	0.484962940216064	2	1	72.9108688831329	100
28	1	0	0	0	2	0.605332136154175	2	1	75.5267519950867	400
29	1	0	0	0	1	0.465676069259644	1	1	78.4426109790802	200
30	1	0	0	0	2	0.413480043411255	2	1	81.1584048271179	300
31	1	1	0	0	2	0.43838095664978	2	1	83.9742078781128	500
32	1	0	0	0	2	0.45389986038208	2	1	86.990024805069	200
33	1	0	0	0	2	0.46631121635437	2	1	89.7057559490204	400
34	1	0	0	0	2	0.390944004058838	2	1	92.6216259002686	500
35	1	1	0	0	1	0.550609111785889	1	1	95.6373519897461	500
36	1	0	0	0	2	0.4632248878479	2	1	98.6531178951263	400
37	1	0	0	0	2	0.458979845046997	2	1	101.568868875504	300
38	1	0	0	0	2	0.499404907226562	2	1	104.384631872177	500
39	1	0	0	0	1	0.429092884063721	1	1	107.400429964066	500
40	1	0	0	0	1	0.537259101867676	1	1	110.416168928146	500
41	1	0	0	0	2	0.580649852752686	2	1	113.431904792786	100
42	1	0	0	0	2	0.460655927658081	2	1	116.047664880753	500
43	1	0	0	0	2	0.436676979064941	2	1	119.063508987427	200
44	1	0	0	0	1	0.576377868652344	1	1	121.779236793518	300
45	1	0	1	0	2	0.513672828674316	2	1	124.595099925995	200
46	1	0	0	0	1	0.461513996124268	1	1	127.310901880264	400
47	1	0	1	0	2	0.446122884750366	2	1	130.226723909378	300
48	1	0	0	0	1	0.537043809890747	1	1	133.042495965958	100
49	1	0	0	0	1	0.410340070724487	2	2	135.658285856247	500
50	1	0	0	0	2	0.450758934020996	2	1	138.67417883873	200
51	1	0	0	0	1	0.470366954803467	1	1	141.389891862869	200
52	1	1	0	0	2	0.713377952575684	2	1	144.105726957321	100
53	1	0	0	0	2	0.554737091064453	2	1	146.721525907516	400
54	1	0	0	0	1	0.614894151687622	1	1	149.637406826019	100
55	1	0	1	0	2	0.75833797454834	2	1	152.25318479538	100
56	1	0	0	0	2	0.541997909545898	1	2	154.869038820267	300
57	1	0	0	0	1	0.518409013748169	1	1	157.684906959534	200
58	1	0	1	0	1	0.635468006134033	1	1	160.400696992874	200
59	1	0	0	0	2	0.494150876998901	2	1	163.116526842117	400
60	1	0	0	0	1	0.636611938476562	1	1	166.032391786575	400
61	2	0	0	0	2	0.418787002563477	2	1	178.945028781891	500
62	2	0	0	0	2	0.618848085403442	2	1	181.960875988007	400
63	2	0	0	0	2	0.479083061218262	2	1	184.876602888107	100
64	2	0	0	0	1	0.566393852233887	1	1	187.492357969284	200
65	2	1	0	0	2	0.610486030578613	1	2	190.208227872849	500
66	2	0	0	0	1	0.571630001068115	1	1	193.224054813385	200
67	2	0	1	0	1	0.511986970901489	1	1	195.93980383873	500
68	2	0	0	0	1	0.496098041534424	1	1	198.955633878708	100
69	2	0	0	0	2	0.440506935119629	2	1	201.57137799263	200
70	2	0	0	0	2	0.454332113265991	2	1	204.287243843079	400
71	2	0	0	0	2	0.553465843200684	2	1	207.203085899353	300
72	2	1	0	0	2	0.488111019134521	2	1	210.018848896027	200
73	2	0	0	0	1	0.524171113967896	1	1	212.734662771225	200
74	2	0	0	0	1	0.496567010879517	1	1	215.450478792191	300
75	2	0	1	0	2	0.47374415397644	2	1	218.266312837601	500
76	2	0	0	0	2	0.383986949920654	2	1	221.282118797302	100
77	2	0	1	0	2	0.481756925582886	2	1	223.897865772247	200
78	2	0	0	0	2	0.405609130859375	2	1	226.613709926605	300
79	2	0	0	0	1	0.621174097061157	1	1	229.429548978806	500
80	2	1	0	0	2	0.437369108200073	2	1	232.445361852646	400
81	2	0	0	0	2	0.482328176498413	2	1	235.361080884933	400
82	2	0	0	0	2	0.46306300163269	1	2	238.276870965958	200
83	2	1	0	0	1	0.434993982315063	1	1	240.992624998093	500
84	2	0	0	0	1	0.402199983596802	1	1	244.008496999741	400
85	2	0	0	0	1	0.478787899017334	1	1	246.924208879471	200
86	2	0	0	0	2	0.931092977523804	1	2	249.639994859695	400
87	2	0	0	0	2	0.398652076721191	2	1	252.555811882019	300
88	2	0	0	0	1	0.663609981536865	1	1	255.371609926224	200
89	2	0	0	0	2	0.612804889678955	2	1	258.087397813797	300
90	2	0	0	0	2	0	0	99	260.903218984604	500
91	2	0	0	0	1	0.893883943557739	1	1	264.272365808487	300
92	2	0	0	0	1	0.534950017929077	1	1	267.084635972977	400
93	2	0	0	0	1	0.595273017883301	1	1	270.000454902649	200
94	2	0	0	0	2	0.407639980316162	2	1	272.716219902039	200
95	2	1	0	0	1	0.531973123550415	1	1	275.432063817978	100
96	2	0	0	0	2	0.626703023910522	1	2	278.047899961472	100
97	2	0	0	0	1	0.491012096405029	1	1	280.663750886917	400
98	2	0	0	0	1	0.663589954376221	1	1	283.579614877701	300
99	2	0	0	0	1	0.535881996154785	1	1	286.395388841629	500
100	2	0	0	0	1	0.488557100296021	1	1	289.41118478775	300
101	2	0	0	0	1	0.519049882888794	1	1	292.226930856705	300
102	2	0	0	0	2	0.367556095123291	2	1	295.042723894119	500
103	2	0	0	0	1	0.464362859725952	1	1	298.058540821075	400
104	2	0	0	0	1	0.612481117248535	1	1	300.974301815033	300
105	2	0	0	0	1	0.43609619140625	1	1	303.790062904358	500
106	2	0	1	0	2	0.452622175216675	1	2	306.80584692955	100
107	2	0	0	0	1	0.564616918563843	1	1	309.421581983566	100
108	2	0	0	0	2	0.437505006790161	2	1	312.037445783615	300
109	2	0	0	0	2	0.428867816925049	2	1	314.853326797485	200
110	2	0	0	0	1	0.809252023696899	1	1	317.569113969803	100
111	2	0	1	0	1	0.442403078079224	1	1	320.184960842133	500
112	2	0	0	0	2	0.425372123718262	2	1	323.200840950012	500
113	2	1	0	0	1	0.40974497795105	1	1	326.216566801071	100
114	2	0	0	0	1	0.706788063049316	1	1	328.832286834717	100
115	2	0	0	0	2	0.56228494644165	2	1	331.448125839233	400
116	2	0	0	0	2	0.391360998153687	2	1	334.36403298378	400
117	2	0	1	0	1	0.56353497505188	1	1	337.27979683876	300
118	2	0	0	0	1	0	0	99	340.095561981201	100
119	2	0	0	0	2	0.429097890853882	2	1	343.465906858444	100
120	2	0	0	0	2	0.485687971115112	1	2	346.076989889145	400
121	3	0	0	0	1	0.785063982009888	1	1	359.07271194458	400
122	3	0	0	0	2	0	0	99	361.988880872726	100
123	3	0	0	0	1	0.536507129669189	1	1	365.352249860764	300
124	3	0	0	0	2	0.526806831359863	1	2	368.170284986496	500
125	3	0	0	0	2	0.39128303527832	2	1	371.186096906662	200
126	3	0	0	0	2	0.469130039215088	2	1	373.901844978333	500
127	3	0	0	0	1	0.484423875808716	1	1	376.917681932449	300
128	3	0	0	0	2	0.453027009963989	2	1	379.733389854431	200
129	3	0	0	0	1	0.489842891693115	1	1	382.449185848236	300
130	3	0	0	0	2	0.409187078475952	2	1	385.265038967133	400
131	3	0	0	0	2	0.382352828979492	2	1	388.180843830109	400
132	3	0	0	0	1	0.456897020339966	1	1	391.096596956253	300
133	3	0	0	0	2	0.458119869232178	2	1	393.912381887436	100
134	3	0	0	0	2	0.450126886367798	2	1	396.528143882751	500
135	3	0	0	0	1	0.482771158218384	1	1	399.544041872025	300
136	3	0	0	0	1	0.443068027496338	1	1	402.359780788422	500
137	3	1	0	0	1	0.561934947967529	1	1	405.375576972961	200
138	3	0	0	0	1	0.590294122695923	1	1	408.091303825378	200
139	3	0	0	0	2	0.578581094741821	2	1	410.807144880295	400
140	3	0	0	0	1	0.558964967727661	1	1	413.723001003265	400
141	3	0	0	0	2	0.490567922592163	2	1	416.638767004013	100
142	3	0	0	0	2	0.563766956329346	2	1	419.254531860352	300
143	3	0	0	0	1	0.499126195907593	1	1	422.070398807526	500
144	3	0	0	0	2	0.644128084182739	1	2	425.086196899414	500
145	3	0	0	0	2	0.588378190994263	1	2	428.101945877075	300
146	3	0	0	0	1	0.516020059585571	1	1	430.917682886124	100
147	3	0	0	0	2	0.508817911148071	2	1	433.533470869064	200
148	3	0	0	0	2	0.46509313583374	2	1	436.249317884445	300
149	3	0	0	0	2	0.53624415397644	2	1	439.065192937851	300
150	3	1	0	0	2	0.592809915542603	2	1	441.88107585907	400
151	3	0	0	0	2	0.534000873565674	2	1	444.796782970428	500
152	3	1	0	0	2	0.509404897689819	2	1	447.81259894371	200
153	3	0	0	0	2	0.505017995834351	2	1	450.528280973434	400
154	3	0	0	0	1	0.446427822113037	1	1	453.444087982178	500
155	3	0	1	0	2	0.542840003967285	2	1	456.45990896225	100
156	3	0	0	0	1	0.638429164886475	1	1	459.075600862503	400
157	3	1	0	0	1	0.539228916168213	1	1	461.991530895233	100
158	3	0	0	0	1	0.625879049301147	1	1	464.607247829437	100
159	3	1	0	0	2	0.506653070449829	1	2	467.223119974136	300
160	3	0	0	0	2	0.443014860153198	2	1	470.039004802704	100
161	3	0	1	0	2	0.483180046081543	2	1	472.654792785645	200
162	3	0	0	0	1	0.535353899002075	1	1	475.370638847351	300
163	3	0	1	0	2	0.599301815032959	1	2	478.186486005783	400
164	3	0	0	0	2	0.620730876922607	2	1	481.102311849594	100
165	3	0	0	0	1	0.627344131469727	1	1	483.7180788517	200
166	3	0	1	0	1	0.663706064224243	1	1	486.433914899826	500
167	3	0	0	0	1	0.592781066894531	1	1	489.449755907059	400
168	3	0	0	0	1	0.540105819702148	1	1	492.365515947342	500
169	3	0	0	0	1	0.45294189453125	1	1	495.381297826767	200
170	3	0	1	0	1	0.639437913894653	1	1	498.097009897232	500
171	3	0	0	0	2	0.663419961929321	2	1	501.11283993721	100
172	3	0	1	0	1	0.473408937454224	1	1	503.728596925735	100
173	3	0	0	0	1	0.561638116836548	1	1	506.344443798065	200
174	3	1	0	0	1	0.581788063049316	1	1	509.060318946838	400
175	3	0	0	0	1	0.553504943847656	1	1	511.976158857346	200
176	3	0	0	0	1	0.525022983551025	1	1	514.691909790039	100
177	3	0	0	0	2	0.620836973190308	2	1	517.307730913162	400
178	3	0	0	0	2	0.434162855148315	2	1	520.223596811295	500
179	3	0	0	0	1	0.617836952209473	1	1	523.239390850067	200
180	3	0	0	0	1	0.718274831771851	1	1	525.955109834671	300
181	4	1	0	0	2	0.512267112731934	2	1	538.201220989227	100
182	4	0	0	0	1	0.559812068939209	1	1	540.817190885544	500
183	4	0	0	0	1	0.480189085006714	1	1	543.833087921143	300
184	4	0	0	0	2	0.681858062744141	2	1	546.648800849915	400
185	4	0	0	0	2	0.437114000320435	1	2	549.564610958099	300
186	4	0	0	0	1	0.46806001663208	1	1	552.380374908447	400
187	4	1	0	0	1	0.913089036941528	1	1	555.296188831329	300
188	4	0	0	0	1	0.577558040618896	1	1	558.111925840378	500
189	4	0	0	0	2	0.73039698600769	2	1	561.127732992172	200
190	4	0	1	0	2	0.43846607208252	2	1	563.84347486496	400
191	4	0	0	0	2	0.410414934158325	2	1	566.759314775467	500
192	4	0	0	0	1	0.697360038757324	1	1	569.775105953217	300
193	4	0	0	0	2	0.474311113357544	1	2	572.590837001801	200
194	4	0	0	0	2	0.727258920669556	2	1	575.306647777557	500
195	4	0	0	0	1	0.493483066558838	1	1	578.322466850281	500
196	4	0	0	0	2	0.863364934921265	2	1	581.338210821152	300
197	4	0	0	0	1	0.543699026107788	1	1	584.153950929642	400
198	4	0	0	0	2	0	0	99	587.069763898849	500
199	4	0	0	0	1	0.502714872360229	1	1	590.419579982758	400
200	4	0	0	0	1	0.651498079299927	1	1	593.334494829178	200
201	4	0	0	0	2	0.542448997497559	2	1	596.050273895264	100
202	4	0	0	0	2	0.375243902206421	2	1	598.666106939316	100
203	4	1	0	0	1	0.562023878097534	1	1	601.281958818436	500
204	4	0	0	0	1	0.558629035949707	1	1	604.297851800919	100
205	4	1	0	0	2	0.431849002838135	2	1	606.913554906845	300
206	4	0	0	0	2	0.479947805404663	2	1	609.72945189476	300
207	4	0	0	0	2	0.694731950759888	1	2	612.545247793198	100
208	4	0	0	0	1	0.456218004226685	1	1	615.16103887558	400
209	4	0	0	0	2	0.66032886505127	2	1	618.07692193985	400
210	4	1	0	0	2	0.551877975463867	1	2	620.99267578125	400
211	4	0	0	0	1	0.516994953155518	2	2	623.908438920975	200
212	4	0	0	0	2	0.776705026626587	2	1	626.624226808548	500
213	4	1	0	0	1	0.625220060348511	1	1	629.640029907227	200
214	4	0	0	0	1	0.58936595916748	1	1	632.355773925781	200
215	4	0	0	0	1	0.769500017166138	1	1	635.071630954742	300
216	4	0	0	0	1	0.512869834899902	1	1	637.887448787689	100
217	4	0	1	0	2	0.600241899490356	1	2	640.503244876862	100
218	4	0	0	0	2	0.458173036575317	1	2	643.119112968445	300
219	4	0	0	0	2	0.482208967208862	1	2	645.934969902039	200
220	4	0	0	0	1	0.454522132873535	2	2	648.650764942169	400
221	4	0	0	0	1	0.465962886810303	2	2	651.566609859467	500
222	4	0	1	0	1	0.714399814605713	1	1	654.58237195015	100
223	4	0	0	0	2	0.475420951843262	2	1	657.198113918304	200
224	4	0	0	0	2	0.406980037689209	2	1	659.914009809494	100
225	4	0	0	0	2	0.399296998977661	2	1	662.529853820801	300
226	4	0	1	0	2	0.614617109298706	2	1	665.345677852631	200
227	4	0	0	0	2	0.451385974884033	2	1	668.061483860016	200
228	4	0	0	0	1	0.391767978668213	2	2	670.777310848236	100
229	4	0	0	0	1	0.456789016723633	1	1	673.393142938614	500
230	4	0	1	0	1	0.495499849319458	1	1	676.40900683403	100
231	4	0	0	0	1	0.544663190841675	1	1	679.024796962738	300
232	4	0	0	0	1	0.512521982192993	1	1	681.840616941452	500
233	4	0	1	0	1	0.745075941085815	1	1	684.856409788132	500
234	4	0	0	0	2	0.616737842559814	2	1	687.872168779373	200
235	4	0	0	0	2	0.468996047973633	1	2	690.58792090416	400
236	4	0	0	0	2	0.433688879013062	1	2	693.503742933273	400
237	4	0	0	0	1	0.534044027328491	1	1	696.419514894485	400
238	4	0	0	0	1	0.593766927719116	1	1	699.335294008255	100
239	4	0	0	0	2	0.58540678024292	1	2	701.951038837433	300
240	4	0	0	0	1	0.626198053359985	1	1	704.766908884048	200
