TrialNum	Block	Odd: Visual	Odd: Audio	Odd: Haptic	CueDirection	RT	RespDirection	Acc	TrialTime	ITI
1	1	0	0	0	2	0.416914939880371	2	1	2.00271606445312e-05	200
2	1	0	0	0	2	0.500458002090454	2	1	2.71616101264954	400
3	1	0	0	0	2	0.399849891662598	2	1	5.63183212280273	400
4	1	1	0	0	2	0.558604955673218	2	1	8.54755401611328	500
5	1	0	0	0	2	0.453206062316895	2	1	11.5631921291351	500
6	1	0	0	0	2	0.509875059127808	2	1	14.5789630413055	200
7	1	0	0	0	1	0.472187995910645	1	1	17.2946100234985	400
8	1	0	1	0	2	0.541002988815308	2	1	20.2104051113129	500
9	1	0	0	0	1	0.450206995010376	1	1	23.2260940074921	200
10	1	0	0	0	1	0.401905059814453	1	1	25.9418210983276	200
11	1	1	0	0	2	0.398791790008545	2	1	28.6576130390167	300
12	1	0	0	0	2	0.383502960205078	2	1	31.4734070301056	400
13	1	0	0	0	1	0.396850824356079	1	1	34.3891730308533	300
14	1	1	0	0	1	0.496477127075195	1	1	37.2048830986023	500
15	1	0	0	0	2	0.379632949829102	2	1	40.2206299304962	100
16	1	0	0	0	2	0.388177871704102	2	1	42.8363609313965	300
17	1	0	0	0	1	0.346999168395996	1	1	45.6522331237793	300
18	1	0	0	0	2	0.337293863296509	2	1	48.467915058136	500
19	1	0	1	0	2	0.556241035461426	2	1	51.4836730957031	400
20	1	0	0	0	1	0.48885703086853	1	1	54.3993570804596	400
21	1	0	0	0	2	0.412959814071655	2	1	57.3150849342346	300
22	1	0	0	0	1	0.397127866744995	1	1	60.1308801174164	500
23	1	0	0	0	2	0.402428150177002	2	1	63.1465671062469	300
24	1	0	0	0	1	0.477885961532593	1	1	65.9622559547424	300
25	1	0	0	0	1	0.471456050872803	1	1	68.7780020236969	400
26	1	0	0	0	1	0.457453966140747	1	1	71.6937661170959	300
27	1	1	0	0	2	0.453480958938599	2	1	74.5096850395203	300
28	1	0	0	0	2	0.554958820343018	2	1	77.3252420425415	100
29	1	0	0	0	1	0.41931414604187	1	1	79.9409940242767	500
30	1	0	0	0	2	0.459944009780884	2	1	82.9568109512329	100
31	1	0	0	0	2	0.420333862304688	2	1	85.5725109577179	400
32	1	0	0	0	2	0.422230005264282	2	1	88.4883351325989	100
33	1	0	0	0	2	0.370210886001587	2	1	91.1041231155396	500
34	1	0	0	0	1	0.417129993438721	1	1	94.1198799610138	500
35	1	0	0	0	1	0.43992018699646	1	1	97.1355640888214	200
36	1	0	0	0	2	0.420531988143921	2	1	99.8512580394745	200
37	1	0	0	0	1	0.400453090667725	1	1	102.567115068436	100
38	1	0	1	0	1	0.537539005279541	1	1	105.182842969894	100
39	1	0	0	0	1	0.508180141448975	1	1	107.798660039902	200
40	1	0	0	0	1	0.467030048370361	1	1	110.514477968216	300
41	1	0	0	0	2	0.439471006393433	2	1	113.330268144608	200
42	1	0	0	0	1	0.362412214279175	1	1	116.046031951904	500
43	1	0	1	0	1	0.412640810012817	1	1	119.061876058578	200
44	1	0	0	0	1	0.471892833709717	1	1	121.777508974075	400
45	1	1	0	0	1	0.48334002494812	1	1	124.693294048309	500
46	1	0	0	0	1	0.404129981994629	1	1	127.709092140198	400
47	1	0	0	0	1	0.407382965087891	1	1	130.624705076218	100
48	1	0	0	0	1	0.416651010513306	1	1	133.240456104279	200
49	1	0	1	0	1	0.511085987091064	1	1	135.956305027008	200
50	1	0	0	0	1	0.40007209777832	1	1	138.672094106674	100
51	1	0	0	0	2	0.320856809616089	1	2	141.287796020508	300
52	1	0	0	0	2	0.491539001464844	2	1	144.103636980057	500
53	1	1	0	0	1	0.480216979980469	1	1	147.119398117065	400
54	1	0	0	0	2	0.475728988647461	2	1	150.03502202034	100
55	1	0	0	0	2	0.501817941665649	2	1	152.650820970535	100
56	1	0	0	0	1	0.483809947967529	1	1	155.266649007797	100
57	1	0	1	0	2	0.476518869400024	2	1	157.88246512413	300
58	1	0	0	0	2	0.532878875732422	2	1	160.69827914238	100
59	1	0	0	0	2	0.461627006530762	2	1	163.314036130905	200
60	1	0	0	0	1	0.473234891891479	1	1	166.029860973358	400
61	2	0	1	0	1	0.499235868453979	1	1	175.709861040115	500
62	2	0	0	0	2	0.394614934921265	2	1	178.72588300705	100
63	2	0	0	0	1	0.464546918869019	1	1	181.341505050659	300
64	2	0	0	0	2	0.435796976089478	2	1	184.157408952713	300
65	2	0	0	0	2	0.437186002731323	2	1	186.973157167435	300
66	2	0	0	0	1	0.468347072601318	1	1	189.788912057877	200
67	2	1	0	0	2	0.465240955352783	2	1	192.504738092422	500
68	2	0	0	0	1	0.297317028045654	1	1	195.520456075668	200
69	2	0	1	0	2	0.41878604888916	2	1	198.236202001572	100
70	2	0	0	0	2	0.52592396736145	2	1	200.851943016052	500
71	2	0	0	0	2	0.508051872253418	2	1	203.867762088776	100
72	2	0	0	0	1	0.485039949417114	1	1	206.483454942703	100
73	2	0	0	0	2	0.397983074188232	2	1	209.099331140518	300
74	2	0	0	0	1	0.454402923583984	1	1	211.915097951889	500
75	2	0	0	0	1	0.494474172592163	1	1	214.930804014206	100
76	2	0	0	0	2	0.436193943023682	2	1	217.546504020691	100
77	2	0	0	0	1	0.385556936264038	1	1	220.162310123444	200
78	2	1	0	0	1	0.516263008117676	1	1	222.878142118454	300
79	2	0	0	0	1	0.427881956100464	1	1	225.693928956985	100
80	2	0	0	0	2	0.411624908447266	2	1	228.309662103653	400
81	2	0	1	0	1	0.414044857025146	1	1	231.225505113602	400
82	2	0	0	0	2	0.426494121551514	2	1	234.141240119934	400
83	2	0	1	0	1	0.344567060470581	1	1	237.056962013245	100
84	2	0	0	0	1	0.465394973754883	1	1	239.67268705368	200
85	2	0	0	0	2	0.433552026748657	2	1	242.38849902153	500
86	2	0	0	0	2	0.485857009887695	2	1	245.404305934906	400
87	2	0	0	0	1	0.393874883651733	1	1	248.319980144501	400
88	2	1	0	0	2	0.422972917556763	2	1	251.235711097717	200
89	2	0	0	0	1	0.433828115463257	1	1	253.951421976089	400
90	2	0	0	0	2	0.335440158843994	2	1	256.867222070694	200
91	2	0	0	0	1	0.315767049789429	1	1	259.582942008972	100
92	2	0	0	0	1	0.35548210144043	1	1	262.19873213768	400
93	2	0	0	0	1	0.302117824554443	1	1	265.114545106888	300
94	2	0	0	0	2	0.454535961151123	2	1	267.930326938629	300
95	2	1	0	0	1	0.393037080764771	1	1	270.746009111404	500
96	2	0	0	0	1	0.401240110397339	1	1	273.761788129807	300
97	2	0	0	0	2	0.969046831130981	2	1	276.577482938766	500
98	2	0	0	0	2	0.48015284538269	2	1	279.59322810173	100
99	2	0	0	0	2	0.39910101890564	2	1	282.208927154541	200
100	2	0	1	0	2	0.562640905380249	2	1	284.924739122391	400
101	2	0	0	0	1	0.385558843612671	1	1	287.840538978577	500
102	2	0	0	0	1	0.403244018554688	1	1	290.856241941452	200
103	2	0	0	0	1	0.482470989227295	1	1	293.571949958801	200
104	2	0	0	0	1	0.466664791107178	1	1	296.287744998932	400
105	2	0	0	0	1	0.395339965820312	1	1	299.20352101326	100
106	2	0	0	0	2	0.319529056549072	1	2	301.819409132004	500
107	2	0	0	0	1	0.48176383972168	1	1	304.835075139999	500
108	2	1	0	0	1	0.479511022567749	1	1	307.850754976273	200
109	2	0	0	0	2	0.500904083251953	2	1	310.566455125809	500
110	2	0	0	0	2	0.412326812744141	2	1	313.582239151001	400
111	2	0	0	0	2	0.529369115829468	2	1	316.497935056686	200
112	2	0	0	0	2	0.432873010635376	2	1	319.213657140732	500
113	2	0	0	0	1	0.506970882415771	1	1	322.229445934296	300
114	2	0	0	0	1	0.493424892425537	1	1	325.04513001442	200
115	2	1	0	0	2	0.497704029083252	2	1	327.760890007019	400
116	2	0	0	0	1	0.505567073822021	1	1	330.676677942276	100
117	2	0	0	0	2	0.406221866607666	2	1	333.292408943176	300
118	2	0	0	0	2	0.415333032608032	2	1	336.108242988586	300
119	2	0	0	0	2	0.444105863571167	2	1	338.923985004425	300
120	2	0	1	0	2	0.468106031417847	2	1	341.73973608017	400
121	3	0	0	0	2	0.414026021957397	2	1	351.586240053177	200
122	3	0	0	0	1	0.410117864608765	1	1	354.30234503746	200
123	3	0	1	0	2	0.488626003265381	2	1	357.018094062805	100
124	3	0	0	0	1	0.546460151672363	1	1	359.633880138397	500
125	3	0	0	0	2	0.440893888473511	2	1	362.649701118469	400
126	3	0	0	0	2	0.461564064025879	2	1	365.565392017365	400
127	3	1	0	0	1	0.61058783531189	1	1	368.481214046478	100
128	3	0	0	0	2	0.362301826477051	2	1	371.09682393074	400
129	3	1	0	0	2	0.426712989807129	2	1	374.012707948685	200
130	3	0	0	0	2	0.370464086532593	2	1	376.728353023529	200
131	3	0	0	0	2	0.334795951843262	2	1	379.444245100021	200
132	3	1	0	0	1	0.44014310836792	1	1	382.159950017929	200
133	3	0	0	0	1	0.517835140228271	1	1	384.875744104385	500
134	3	0	0	0	2	0.318253993988037	2	1	387.891540050507	200
135	3	0	0	0	1	0.381446123123169	1	1	390.60722899437	100
136	3	0	0	0	1	0.389007806777954	1	1	393.223000049591	500
137	3	0	0	0	2	0.476413011550903	2	1	396.238784074783	300
138	3	0	1	0	1	0.405625104904175	1	1	399.054510116577	400
139	3	0	0	0	2	0.424811124801636	2	1	401.970289945602	300
140	3	0	0	0	1	0.355868101119995	1	1	404.786014080048	100
141	3	0	0	0	1	0.673423051834106	1	1	407.401759147644	300
142	3	1	0	0	1	0.529331922531128	1	1	410.217596054077	500
143	3	0	0	0	1	0.473514080047607	1	1	413.233345031738	200
144	3	0	1	0	1	0.598042964935303	1	1	415.949036121368	400
145	3	0	0	0	2	0.554301977157593	2	1	418.864814043045	100
146	3	0	0	0	2	0.467375040054321	2	1	421.480527162552	300
147	3	0	0	0	2	0.426631927490234	2	1	424.296366930008	500
148	3	0	0	0	1	0.427215099334717	1	1	427.312134981155	400
149	3	0	0	0	2	0.452965021133423	2	1	430.227729082108	100
150	3	0	1	0	2	0.456360101699829	2	1	432.843421936035	100
151	3	0	0	0	2	0.433726072311401	2	1	435.459156990051	200
152	3	0	1	0	1	0.427824974060059	1	1	438.175019025803	500
153	3	0	0	0	1	0.47638988494873	1	1	441.190793991089	400
154	3	0	0	0	1	0.432893991470337	1	1	444.106469154358	300
155	3	0	0	0	1	0.312403917312622	1	1	446.922171115875	500
156	3	0	0	0	2	0.435312032699585	2	1	449.937901973724	200
157	3	1	0	0	2	0.486684083938599	2	1	452.653578042984	200
158	3	0	0	0	2	0.407044887542725	2	1	455.369346141815	300
159	3	0	0	0	1	0.327696800231934	2	2	458.185115098953	200
160	3	0	0	0	1	0.435348033905029	1	1	460.900840997696	300
161	3	0	0	0	1	0.40245795249939	1	1	463.716691017151	100
162	3	0	0	0	1	0.380808115005493	1	1	466.332338094711	400
163	3	0	0	0	2	0.499552965164185	2	1	469.248230934143	100
164	3	0	0	0	1	0.483891010284424	1	1	471.863940954208	400
165	3	0	0	0	1	0.358641862869263	1	1	474.779612064362	500
166	3	1	0	0	2	0.473069906234741	2	1	477.795443058014	500
167	3	0	0	0	1	0.408346891403198	1	1	480.811015129089	100
168	3	0	0	0	1	0.48838996887207	1	1	483.426691055298	400
169	3	0	0	0	2	0.37935209274292	2	1	486.342502117157	100
170	3	0	0	0	2	0.532537221908569	2	1	488.958202123642	300
171	3	0	0	0	1	0.333292007446289	1	1	491.77400302887	300
172	3	0	0	0	2	0.413638830184937	2	1	494.589729070663	400
173	3	0	0	0	1	0.442436933517456	1	1	497.505464076996	100
174	3	0	0	0	1	0.401494026184082	1	1	500.121184110641	500
175	3	0	0	0	2	0.322341918945312	2	1	503.136980056763	300
176	3	0	0	0	2	0.475182771682739	2	1	505.952655076981	500
177	3	0	0	0	1	0.403071880340576	1	1	508.968307971954	300
178	3	0	0	0	2	0.475591897964478	2	1	511.784129142761	500
179	3	0	0	0	2	0.419612169265747	2	1	514.799783945084	300
180	3	0	1	0	2	0.467944860458374	2	1	517.615448951721	400
181	4	0	0	0	2	0.48292088508606	2	1	527.845129966736	200
182	4	0	0	0	1	0.492269992828369	1	1	530.561255931854	300
183	4	0	0	0	2	0.36174488067627	2	1	533.376919984818	500
184	4	0	0	0	1	0.451365947723389	1	1	536.392670154572	300
185	4	0	0	0	2	0.427274942398071	2	1	539.208357095718	500
186	4	0	0	0	2	0.420257091522217	2	1	542.224075078964	200
187	4	0	0	0	2	0.519377946853638	2	1	544.939744949341	300
188	4	0	0	0	2	0.47179913520813	2	1	547.75550699234	100
189	4	0	0	0	2	0.469074010848999	2	1	550.371237039566	500
190	4	1	0	0	1	0.536403894424438	1	1	553.387047052383	200
191	4	0	0	0	1	0.498857021331787	1	1	556.102723121643	100
192	4	0	0	0	1	0.529477119445801	1	1	558.718454122543	100
193	4	0	0	0	1	0.558072090148926	1	1	561.334295988083	400
194	4	0	0	0	1	0.481297969818115	1	1	564.250113010406	400
195	4	0	0	0	2	0.493732929229736	2	1	567.165816068649	400
196	4	0	0	0	1	0.439301013946533	1	1	570.081500053406	500
197	4	0	0	0	1	0.378097057342529	1	1	573.097223043442	300
198	4	0	0	0	2	0.458558082580566	2	1	575.912894010544	300
199	4	0	1	0	1	0.451009035110474	1	1	578.728642940521	200
200	4	0	0	0	1	0.406081914901733	1	1	581.444373130798	200
201	4	0	0	0	2	0.359314203262329	2	1	584.160194158554	100
202	4	1	0	0	2	0.452685117721558	2	1	586.775859117508	500
203	4	0	0	0	1	0.399278879165649	1	1	589.791726112366	300
204	4	0	0	0	2	0.365000009536743	2	1	592.607390165329	200
205	4	0	1	0	2	0.436913013458252	2	1	595.323138952255	400
206	4	0	0	0	1	0.44430685043335	1	1	598.238911151886	400
207	4	0	0	0	2	0.425437927246094	2	1	601.154606103897	500
208	4	0	1	0	2	0.425924062728882	2	1	604.170323133469	300
209	4	0	0	0	1	0.486703157424927	1	1	606.985988140106	100
210	4	0	0	0	2	0.45569896697998	2	1	609.601799964905	500
211	4	0	0	0	2	0.506063938140869	2	1	612.617541074753	200
212	4	0	0	0	2	0.400269985198975	2	1	615.333204984665	200
213	4	0	1	0	1	0.456567049026489	1	1	618.048984050751	200
214	4	0	0	0	2	0.413611888885498	2	1	620.764821052551	100
215	4	1	0	0	2	0.40719199180603	2	1	623.380535125732	100
216	4	0	0	0	1	0.485677003860474	1	1	625.996346950531	300
217	4	0	0	0	1	0.408030986785889	1	1	628.812179088593	300
218	4	0	0	0	2	0.439567804336548	2	1	631.62787604332	300
219	4	0	0	0	1	0.408690929412842	1	1	634.443624019623	200
220	4	0	0	0	2	0.413427114486694	2	1	637.159362077713	300
221	4	0	0	0	1	0.420902967453003	1	1	639.975140094757	400
222	4	1	0	0	1	0.423478126525879	1	1	642.890968084335	100
223	4	0	0	0	1	0.448745012283325	1	1	645.506520986557	500
224	4	0	0	0	2	0.553900003433228	2	1	648.522388935089	200
225	4	1	0	0	2	0.501578807830811	2	1	651.238038063049	500
226	4	0	0	0	1	0.51609992980957	1	1	654.253843069077	400
227	4	0	0	0	1	0.346166849136353	1	1	657.169502973557	400
228	4	0	0	0	2	0.494779825210571	2	1	660.085153102875	500
229	4	0	0	0	2	0.424208164215088	2	1	663.10086107254	100
230	4	0	0	0	2	0.400402069091797	2	1	665.716603040695	100
231	4	0	0	0	1	0.466233015060425	1	1	668.332352161407	400
232	4	0	0	0	1	0.436904907226562	1	1	671.24827003479	400
233	4	0	0	0	2	0.397325038909912	2	1	674.163923025131	100
234	4	0	0	0	1	0.359755992889404	1	1	676.779628992081	200
235	4	0	0	0	2	0.410856008529663	2	1	679.495434999466	300
236	4	0	1	0	2	0.466239929199219	2	1	682.311211109161	500
237	4	0	0	0	1	0.485363006591797	1	1	685.326946973801	500
238	4	0	1	0	1	0.404869079589844	1	1	688.342628955841	400
239	4	0	0	0	1	0.433996915817261	1	1	691.258307933807	100
240	4	1	0	0	1	0.553516149520874	1	1	693.87401509285	400
