TrialNum	Block	Odd: Visual	Odd: Audio	Odd: Haptic	CueDirection	RT	RespDirection	Acc	TrialTime	ITI
1	1	0	0	0	2	0.442239999771118	2	1	0.000120878219604492	300
2	1	0	0	0	1	0.393812894821167	1	1	2.86250495910645	100
3	1	0	0	0	2	0.406708955764771	2	1	5.48236584663391	100
4	1	0	0	0	2	0.306865930557251	1	2	8.09807586669922	300
5	1	0	0	0	1	0.599723100662231	1	1	10.9143829345703	400
6	1	0	0	0	2	0.351854801177979	2	1	13.8347609043121	500
7	1	1	0	0	1	0.579870939254761	1	1	16.8440058231354	200
8	1	0	0	0	1	0.634741067886353	1	1	19.5596139431	200
9	1	0	0	0	2	0.478919982910156	2	1	22.2753899097443	500
10	1	0	0	0	2	0.391793966293335	2	1	25.2911510467529	200
11	1	0	0	0	1	0.489944934844971	1	1	28.0068440437317	500
12	1	1	0	0	2	0.407161951065063	2	1	31.0225899219513	300
13	1	0	0	0	2	0.438239097595215	2	1	33.8382449150085	400
14	1	1	0	0	2	0.482136011123657	2	1	36.7539999485016	100
15	1	0	0	0	2	0.456601142883301	2	1	39.3697018623352	500
16	1	0	0	0	2	0.449556112289429	2	1	42.3855328559875	400
17	1	0	0	0	1	0.57592511177063	1	1	45.3011808395386	100
18	1	0	0	0	2	0.448390960693359	2	1	47.9170269966125	300
19	1	1	0	0	1	0.502158164978027	1	1	50.7327308654785	500
20	1	0	0	0	1	0.474125146865845	1	1	53.7484948635101	400
21	1	0	0	0	2	0.340775966644287	2	1	56.6641459465027	500
22	1	0	0	0	2	0.441870927810669	2	1	59.6798219680786	100
23	1	0	0	0	1	0.507176160812378	1	1	62.2957429885864	200
24	1	0	0	0	2	0.41529107093811	2	1	65.0280258655548	400
25	1	0	1	0	1	0.602552890777588	1	1	67.9438090324402	100
26	1	0	0	0	2	0.531249046325684	2	1	70.5595288276672	100
27	1	0	0	0	1	0.508624076843262	1	1	73.1753480434418	200
28	1	0	0	0	2	0.431759119033813	2	1	75.8911550045013	500
29	1	0	1	0	1	0.480066061019897	1	1	78.9069440364838	300
30	1	0	0	0	1	0.497847080230713	1	1	81.7227618694305	400
31	1	0	1	0	2	0.472622156143188	2	1	84.6550388336182	200
32	1	0	0	0	2	0.439964056015015	2	1	87.3707659244537	400
33	1	0	0	0	2	0.405159950256348	2	1	90.2865378856659	100
34	1	0	0	0	1	0.48832106590271	1	1	92.9022948741913	400
35	1	0	1	0	2	0.456582069396973	2	1	95.8180868625641	400
36	1	0	0	0	1	0.472762107849121	1	1	98.7338018417358	300
37	1	1	0	0	2	0.378313779830933	2	1	101.549788951874	100
38	1	0	0	0	1	0.454216003417969	1	1	104.181917905807	200
39	1	0	0	0	2	0.441586971282959	2	1	106.897737026215	500
40	1	0	0	0	1	0.478760957717896	1	1	109.913756847382	500
41	1	0	0	0	1	0.417532920837402	1	1	112.945865869522	300
42	1	0	0	0	1	0.337812900543213	2	2	115.761561870575	400
43	1	0	0	0	1	0.514081001281738	1	1	118.677301883698	200
44	1	0	0	0	1	0.458586931228638	1	1	121.393031835556	500
45	1	0	0	0	2	0.489595174789429	2	1	124.408810853958	400
46	1	0	0	0	1	0.569067001342773	1	1	127.32480597496	300
47	1	1	0	0	1	0.567115068435669	1	1	130.156874895096	100
48	1	0	0	0	1	0.516880035400391	1	1	132.772625923157	300
49	1	0	1	0	1	0.49410605430603	1	1	135.588461875916	200
50	1	0	0	0	1	0.510582208633423	1	1	138.304198026657	200
51	1	0	0	0	2	0.478724002838135	2	1	141.019912958145	400
52	1	0	0	0	2	0.410531997680664	2	1	143.93575501442	100
53	1	0	0	0	1	0.494355916976929	1	1	146.551484823227	500
54	1	0	0	0	1	0.464257955551147	1	1	149.567589998245	200
55	1	0	0	0	1	0.473928928375244	1	1	152.299653053284	200
56	1	0	0	0	1	0.46879506111145	1	1	155.015422821045	500
57	1	0	1	0	2	0.530925989151001	2	1	158.03121304512	300
58	1	0	0	0	2	0.46660304069519	2	1	160.84688782692	300
59	1	0	0	0	2	0.66899299621582	2	1	163.662618875504	100
60	1	0	0	0	2	0.464291095733643	2	1	166.278419017792	300
61	2	1	0	0	1	0.480525016784668	1	1	184.539510011673	500
62	2	0	0	0	2	0.400324821472168	2	1	187.55494093895	400
63	2	1	0	0	2	0.437056064605713	2	1	190.470752954483	400
64	2	0	0	0	2	0.454379081726074	2	1	193.38636302948	500
65	2	0	0	0	1	0.411921977996826	1	1	196.402086019516	100
66	2	0	0	0	2	0.445693969726562	2	1	199.017760038376	400
67	2	0	0	0	1	0.486315011978149	1	1	201.933572053909	200
68	2	0	0	0	2	0.447805881500244	2	1	204.649286985397	200
69	2	0	0	0	2	0.421055793762207	2	1	207.365072965622	200
70	2	0	1	0	1	0.428736925125122	1	1	210.080853939056	100
71	2	0	0	0	2	0.439323902130127	2	1	212.696710824966	100
72	2	0	0	0	1	0.4113450050354	1	1	215.329129934311	400
73	2	0	0	0	2	0.397594928741455	2	1	218.244933843613	500
74	2	0	1	0	2	0.512733936309814	2	1	221.260642051697	500
75	2	0	0	0	1	0.432322025299072	1	1	224.276371002197	400
76	2	0	0	0	1	0.551305055618286	1	1	227.192006826401	300
77	2	0	0	0	2	0.364450216293335	2	1	230.00775885582	200
78	2	0	0	0	2	0.460832118988037	2	1	232.72348690033	300
79	2	0	0	0	1	0.459127902984619	1	1	235.53928399086	200
80	2	0	0	0	2	0.45487904548645	2	1	238.255048036575	400
81	2	1	0	0	2	0.720885038375854	2	1	241.170948028564	300
82	2	0	0	0	2	0	0	99	244.003206968307	200
83	2	0	0	0	2	0.505484819412231	2	1	247.67981004715	100
84	2	0	0	0	1	0.50937819480896	1	1	250.301169872284	500
85	2	0	0	0	2	0.429073095321655	2	1	253.316895961761	400
86	2	0	0	0	1	0.424780130386353	1	1	256.232584953308	500
87	2	0	0	0	1	0.503046989440918	1	1	259.248321056366	400
88	2	0	0	0	1	0.445626020431519	1	1	262.163964033127	500
89	2	0	0	0	1	0.456058979034424	1	1	265.179692029953	200
90	2	0	0	0	1	0.500230073928833	1	1	267.895401000977	300
91	2	0	0	0	1	0.494235992431641	1	1	270.711160898209	300
92	2	1	0	0	1	0.507621049880981	1	1	273.526937007904	100
93	2	0	0	0	1	0.491209030151367	1	1	276.142689943314	200
94	2	0	0	0	1	0.346450090408325	1	1	278.85849905014	500
95	2	0	0	0	1	0.387414932250977	1	1	281.874284029007	100
96	2	0	0	0	2	0.384208917617798	2	1	284.489950895309	300
97	2	0	1	0	1	0.519937992095947	1	1	287.305783987045	300
98	2	0	0	0	1	0.441853046417236	1	1	290.121505022049	200
99	2	0	0	0	2	0.422446966171265	2	1	292.837252855301	400
100	2	0	0	0	2	0.43354606628418	2	1	295.753072977066	100
101	2	0	0	0	2	0.415169954299927	2	1	298.368783950806	200
102	2	1	0	0	1	0.43194580078125	1	1	301.08460688591	200
103	2	0	0	0	1	0.501009941101074	1	1	303.800407886505	300
104	2	0	1	0	1	0.458966016769409	1	1	306.616134881973	100
105	2	0	0	0	2	0.45674991607666	2	1	309.231919050217	400
106	2	0	0	0	1	0.445053815841675	1	1	312.147722005844	100
107	2	1	0	0	2	0.453160047531128	2	1	314.763453960419	100
108	2	0	0	0	2	0.438204050064087	2	1	317.379250049591	500
109	2	0	0	0	2	0.406048059463501	2	1	320.395091056824	300
110	2	0	1	0	2	0.500444173812866	2	1	323.210768938065	400
111	2	0	0	0	1	0.508184909820557	1	1	326.126526832581	400
112	2	0	1	0	2	0.399926900863647	2	1	329.042244911194	100
113	2	0	0	0	2	0.433137893676758	2	1	331.657940864563	300
114	2	0	0	0	1	0.489585876464844	1	1	334.473780870438	500
115	2	0	0	0	2	0.401753902435303	2	1	337.48952293396	500
116	2	0	0	0	2	0.444452047348022	2	1	340.505208969116	200
117	2	0	0	0	1	0.486941814422607	1	1	343.22088098526	300
118	2	0	0	0	2	0.383457899093628	2	1	346.036669969559	300
119	2	0	0	0	1	0.390089988708496	1	1	348.852442979813	100
120	2	0	0	0	1	0.422378778457642	1	1	351.468200922012	500
121	3	0	0	0	1	0.48930811882019	1	1	366.280050992966	300
122	3	0	0	0	1	0.529706954956055	1	1	369.095878839493	500
123	3	0	0	0	2	0.457005977630615	2	1	372.111611843109	400
124	3	0	0	0	1	0.457689046859741	1	1	375.027338981628	100
125	3	1	0	0	2	0.606230974197388	2	1	377.643028974533	200
126	3	0	0	0	2	0.466310977935791	2	1	380.358856916428	400
127	3	0	1	0	2	0.550863027572632	2	1	383.274626970291	200
128	3	0	0	0	2	0.46774697303772	2	1	385.990331888199	100
129	3	0	1	0	1	0.460484981536865	1	1	388.606142997742	200
130	3	0	0	0	1	0.447341918945312	1	1	391.321936845779	400
131	3	0	0	0	2	0.468924045562744	2	1	394.237972021103	400
132	3	0	0	0	1	0.488509178161621	1	1	397.170105934143	400
133	3	0	0	0	1	0.455745935440063	1	1	400.085813999176	200
134	3	0	0	0	2	0.407595872879028	2	1	402.801502943039	500
135	3	0	1	0	1	0.586817026138306	1	1	405.817548036575	100
136	3	0	0	0	1	0.456659078598022	1	1	408.449645996094	300
137	3	0	0	0	2	0.415302038192749	2	1	411.265446901321	400
138	3	0	0	0	2	0.524577856063843	2	1	414.181205034256	500
139	3	0	0	0	2	0.413120031356812	2	1	417.196921825409	500
140	3	0	0	0	2	0.397204875946045	2	1	420.212838888168	100
141	3	0	0	0	2	0.344576835632324	2	1	422.844957828522	100
142	3	0	0	0	1	0.500124216079712	1	1	425.460741996765	500
143	3	0	0	0	2	0.40514612197876	2	1	428.476572990417	200
144	3	0	0	0	1	0.515228986740112	1	1	431.192291975021	200
145	3	0	0	0	2	0.384431838989258	2	1	433.908056020737	500
146	3	0	0	0	2	0.468851804733276	2	1	436.923832893372	100
147	3	0	0	0	2	0.455219984054565	2	1	439.539520025253	300
148	3	0	1	0	1	0.45119309425354	1	1	442.35534286499	300
149	3	0	0	0	2	0.438146114349365	2	1	445.171342849731	300
150	3	0	0	0	1	0.537090063095093	1	1	448.003484010696	500
151	3	0	0	0	2	0.413358926773071	2	1	451.019243955612	100
152	3	1	0	0	2	0.420730113983154	2	1	453.634932041168	100
153	3	0	0	0	2	0.421463966369629	2	1	456.25074505806	100
154	3	0	0	0	1	0.46784496307373	1	1	458.866567850113	500
155	3	0	0	0	2	0.389059066772461	2	1	461.882359981537	200
156	3	0	0	0	1	0.449813842773438	1	1	464.598073005676	200
157	3	0	0	0	1	0.493732929229736	1	1	467.314086914062	500
158	3	0	0	0	2	0.435437917709351	2	1	470.34629201889	200
159	3	0	0	0	2	0.460025787353516	2	1	473.061964035034	200
160	3	0	1	0	2	0.543719053268433	2	1	475.777761936188	400
161	3	0	0	0	1	0.43490195274353	1	1	478.693531990051	300
162	3	0	0	0	1	0.589531898498535	1	1	481.509467840195	300
163	3	0	0	0	1	0.419790029525757	1	1	484.341678857803	500
164	3	0	1	0	2	0.415700912475586	2	1	487.357427835464	400
165	3	0	0	0	1	0.503703832626343	1	1	490.273108959198	200
166	3	1	0	0	2	0.447803974151611	2	1	492.988816976547	100
167	3	0	0	0	1	0.477276802062988	1	1	495.604614973068	100
168	3	0	0	0	1	0.499309062957764	1	1	498.220454931259	300
169	3	1	0	0	1	0.500531911849976	1	1	501.036226034164	300
170	3	0	0	0	2	0.53413987159729	2	1	503.851981878281	400
171	3	1	0	0	1	0.462703943252563	1	1	506.767884969711	300
172	3	0	0	0	1	0.546140909194946	1	1	509.600106954575	500
173	3	0	0	0	2	0.519901990890503	2	1	512.615859031677	300
174	3	0	0	0	2	0.458230018615723	2	1	515.431556940079	300
175	3	0	0	0	1	0.482626914978027	1	1	518.247288942337	200
176	3	0	0	0	1	0.572535991668701	1	1	520.963055849075	500
177	3	0	0	0	1	0.551486968994141	1	1	523.978838920593	400
178	3	1	0	0	1	0.537837028503418	1	1	526.894769906998	400
179	3	0	0	0	1	0.539767980575562	1	1	529.826908826828	100
180	3	0	0	0	2	0.462676048278809	2	1	532.442620992661	400
181	4	0	1	0	2	0.442713975906372	2	1	547.671144962311	300
182	4	0	0	0	1	0.537012100219727	1	1	550.486793041229	300
183	4	0	0	0	2	0.362358808517456	2	1	553.302551031113	400
184	4	0	0	0	2	0.390736103057861	2	1	556.218291044235	400
185	4	0	0	0	1	0.475060939788818	1	1	559.134026050568	500
186	4	0	1	0	1	0.464510917663574	1	1	562.149749040604	300
187	4	0	0	0	1	0.443949937820435	1	1	564.965419054031	200
188	4	0	0	0	1	0.532157897949219	1	1	567.681187868118	100
189	4	0	0	0	1	0.503117084503174	1	1	570.296955823898	300
190	4	0	0	0	1	0.432090997695923	1	1	573.112786054611	100
191	4	1	0	0	2	0.408210039138794	2	1	575.728538990021	400
192	4	0	0	0	1	0.475880861282349	1	1	578.64435005188	300
193	4	0	0	0	1	0.455053806304932	1	1	581.46005487442	300
194	4	0	0	0	2	0.485859870910645	2	1	584.275938034058	500
195	4	0	0	0	2	0.469702005386353	2	1	587.308157920837	100
196	4	0	0	0	1	0.493442058563232	1	1	589.923879861832	100
197	4	0	0	0	1	0.429941892623901	1	1	592.539718866348	100
198	4	0	0	0	1	0.520565986633301	1	1	595.15554690361	100
199	4	1	0	0	2	0.545660018920898	2	1	597.771355867386	400
200	4	0	0	0	1	0.537187814712524	1	1	600.687162876129	400
201	4	0	0	0	2	0.533379077911377	2	1	603.602885007858	200
202	4	0	0	0	2	0.475300073623657	2	1	606.318722963333	500
203	4	0	0	0	1	0.473834037780762	1	1	609.351035833359	500
204	4	0	0	0	2	0.458523988723755	2	1	612.366734027863	200
205	4	0	1	0	1	0.510111093521118	1	1	615.082412004471	200
206	4	0	0	0	1	0.492340087890625	1	1	617.798207998276	500
207	4	0	0	0	2	0	0	99	620.813923835754	500
208	4	0	0	0	2	0.571333885192871	2	1	624.497761964798	200
209	4	1	0	0	1	0.523613214492798	1	1	627.21179485321	200
210	4	0	0	0	1	0.624981880187988	1	1	629.927580833435	400
211	4	0	1	0	1	0.5918869972229	1	1	632.843343019485	400
212	4	0	0	0	2	0.434002876281738	2	1	635.759085893631	200
213	4	0	0	0	2	0.516061067581177	2	1	638.474803924561	100
214	4	0	0	0	1	0.507604122161865	1	1	641.090575933456	500
215	4	0	0	0	2	0.389140129089355	2	1	644.106394052505	300
216	4	0	0	0	2	0.365715026855469	2	1	646.922073841095	500
217	4	0	0	0	2	0.456173896789551	2	1	649.937839984894	100
218	4	1	0	0	1	0.536093950271606	1	1	652.553519964218	400
219	4	0	0	0	1	0.433029890060425	1	1	655.469290971756	400
220	4	0	0	0	2	0.389098882675171	2	1	658.385050058365	100
221	4	1	0	0	1	0.524691104888916	1	1	661.000906944275	500
222	4	0	0	0	1	0.438543081283569	1	1	664.016590833664	200
223	4	0	1	0	2	0.344434976577759	2	1	666.732291936874	100
224	4	0	0	0	1	0.514071941375732	1	1	669.348042964935	100
225	4	0	0	0	2	0.373271942138672	2	1	671.963824033737	400
226	4	0	0	0	1	0.546486139297485	1	1	674.879686832428	100
227	4	0	0	0	2	0.419665813446045	2	1	677.495337963104	300
228	4	0	0	0	2	0.501236200332642	2	1	680.311216831207	300
229	4	0	0	0	2	0.413280963897705	2	1	683.126974821091	300
230	4	0	0	0	2	0.40251088142395	2	1	685.942718982697	500
231	4	0	0	0	2	0.555037975311279	2	1	688.958451032639	500
232	4	0	0	0	1	0	0	99	691.974141836166	200
233	4	0	1	0	2	0.397240877151489	2	1	695.707883834839	500
234	4	0	0	0	1	0.493030071258545	1	1	698.721952915192	200
235	4	0	0	0	2	0.455679893493652	2	1	701.437639951706	400
236	4	1	0	0	2	0.398808002471924	2	1	704.353497028351	200
237	4	0	0	0	1	0.480686902999878	1	1	707.069139957428	300
238	4	0	0	0	2	0.434922933578491	2	1	709.884920835495	200
239	4	0	0	0	2	0.428461074829102	2	1	712.600682973862	400
240	4	0	0	0	1	0.494556903839111	1	1	715.516387939453	300
