TrialNum	Block	Odd: Visual	Odd: Audio	Odd: Haptic	CueDirection	RT	RespDirection	Acc	TrialTime	ITI
1	1	0	0	0	1	0.453973054885864	1	1	9.39369201660156e-05	300
2	1	0	0	0	1	0.495168924331665	1	1	2.81272792816162	500
3	1	0	0	0	1	0.467422008514404	1	1	5.82494688034058	300
4	1	0	0	0	1	0.502310991287231	1	1	8.6373188495636	400
5	1	0	1	0	2	0.543571949005127	2	1	11.5497558116913	300
6	1	0	0	0	2	0.424737930297852	2	1	14.355504989624	100
7	1	0	0	0	1	0.478740930557251	1	1	16.9679918289185	100
8	1	1	0	0	2	0.5835280418396	2	1	19.5804929733276	400
9	1	0	0	0	2	0.549360990524292	2	1	22.493017911911	400
10	1	0	0	0	1	0.54703688621521	1	1	25.3987829685211	400
11	1	1	0	0	2	0.524893045425415	2	1	28.3045489788055	500
12	1	0	0	0	1	0.573015928268433	1	1	31.3102660179138	400
13	1	1	0	0	1	0.578912973403931	1	1	34.2226598262787	200
14	1	0	0	0	2	0.536844968795776	2	1	36.9284198284149	400
15	1	0	0	0	2	0.520145177841187	2	1	39.8342678546906	200
16	1	1	0	0	1	0.710697174072266	1	1	42.5401208400726	500
17	1	0	0	0	1	0.521677017211914	1	1	45.5458459854126	200
18	1	0	0	0	2	0.720406055450439	2	1	48.2582168579102	200
19	1	0	0	0	1	0.581874847412109	1	1	50.964015007019	500
20	1	0	0	0	2	0.441972970962524	2	1	53.9698739051819	100
21	1	0	0	0	2	0.693222999572754	2	1	56.5822579860687	300
22	1	1	0	0	1	0.601303815841675	1	1	59.3948287963867	300
23	1	0	0	0	2	0.564110994338989	2	1	62.2072389125824	500
24	1	0	0	0	1	0.552422046661377	1	1	65.2196888923645	500
25	1	0	1	0	2	0.546518802642822	2	1	68.2320818901062	100
26	1	0	0	0	1	0.542021989822388	1	1	70.844468832016	100
27	1	0	0	0	2	0.689949035644531	2	1	73.4569938182831	300
28	1	0	1	0	1	0.501286029815674	1	1	76.2695338726044	500
29	1	0	0	0	1	0.536663055419922	1	1	79.2819747924805	200
30	1	0	0	0	1	0.55084490776062	1	1	81.9943540096283	300
31	1	0	1	0	2	0.506487131118774	2	1	84.8001627922058	400
32	1	0	0	0	2	0.632220029830933	2	1	87.7126398086548	200
33	1	0	0	0	1	0.503657817840576	1	1	90.4183700084686	100
34	1	0	0	0	2	0.483244895935059	2	1	93.0241990089417	200
35	1	0	0	0	2	0.545351028442383	2	1	95.736722946167	200
36	1	0	0	0	1	0.575447082519531	1	1	98.4425458908081	400
37	1	0	0	0	2	0.53299617767334	2	1	101.348352909088	500
38	1	0	0	0	2	0.617424964904785	2	1	104.354106903076	100
39	1	0	0	0	2	0.572396993637085	2	1	106.966471910477	200
40	1	0	0	0	1	0.722563982009888	1	1	109.679020881653	100
41	1	0	0	0	1	0.638527154922485	1	1	112.284818887711	200
42	1	0	0	0	1	0.724799871444702	1	1	114.997360944748	100
43	1	0	1	0	1	0.51961612701416	1	1	117.603173971176	400
44	1	0	0	0	2	0.493378162384033	2	1	120.515672922134	400
45	1	0	0	0	1	0.644192934036255	1	1	123.421441793442	200
46	1	0	0	0	1	0.625825166702271	1	1	126.127178907394	200
47	1	0	0	0	2	0.591480016708374	2	1	128.833009958267	500
48	1	0	0	0	2	0.834764003753662	2	1	131.838837862015	300
49	1	0	1	0	1	0.527148008346558	1	1	134.651217937469	500
50	1	0	0	0	2	0.539326906204224	2	1	137.663684844971	100
51	1	0	0	0	2	0.493984937667847	2	1	140.276045799255	400
52	1	0	0	0	2	0.516666889190674	2	1	143.188576936722	300
53	1	0	0	0	1	0.471843957901001	1	1	145.994320869446	100
54	1	0	0	0	1	0.578469038009644	1	1	148.606786966324	500
55	1	0	0	0	1	0.470839023590088	1	1	151.61930680275	300
56	1	0	0	0	2	0.474146127700806	2	1	154.431681871414	500
57	1	0	0	0	2	0.565911054611206	2	1	157.444139957428	100
58	1	0	0	0	1	0.585264921188354	1	1	160.056524991989	300
59	1	1	0	0	2	0.557569980621338	2	1	162.869040966034	300
60	1	0	0	0	2	0.615952014923096	2	1	165.681487798691	400
61	2	0	0	0	2	0.417352914810181	2	1	191.313035964966	300
62	2	0	0	0	1	0.477141141891479	1	1	194.125856876373	100
63	2	1	0	0	1	0.544604063034058	1	1	196.73829293251	500
64	2	0	0	0	1	0.586383104324341	1	1	199.750805854797	100
65	2	1	0	0	2	0.438745021820068	2	1	202.363205909729	200
66	2	0	0	0	2	0.500848054885864	2	1	205.075711011887	300
67	2	0	0	0	1	0.528630971908569	1	1	207.881508827209	200
68	2	0	1	0	2	0.478680849075317	2	1	210.59395980835	400
69	2	0	0	0	2	0.508208036422729	2	1	213.499782800674	500
70	2	0	1	0	1	0.471621036529541	1	1	216.505564928055	300
71	2	0	0	0	2	0.427639961242676	2	1	219.317903995514	500
72	2	0	0	0	2	0.622640132904053	2	1	222.330384016037	300
73	2	0	0	0	2	0.530539035797119	2	1	225.142756938934	100
74	2	0	1	0	1	0.492629051208496	1	1	227.75519490242	300
75	2	0	0	0	2	0.433662891387939	2	1	230.567688941956	100
76	2	0	0	0	2	0.572535991668701	2	1	233.180158853531	500
77	2	0	0	0	2	0.592617034912109	2	1	236.192673921585	200
78	2	1	0	0	1	0.647192001342773	1	1	238.905022859573	500
79	2	0	0	0	1	0.610347032546997	1	1	241.91085100174	500
80	2	0	0	0	2	0.549671173095703	2	1	244.923236846924	200
81	2	0	0	0	2	0.508436918258667	2	1	247.635592937469	400
82	2	0	1	0	1	0.49006199836731	1	1	250.541441917419	400
83	2	0	0	0	2	0.553601026535034	2	1	253.447165966034	500
84	2	0	0	0	1	0.547060966491699	1	1	256.452926874161	500
85	2	0	0	0	1	0.551019906997681	1	1	259.465292930603	200
86	2	1	0	0	2	0.669934034347534	2	1	262.177699804306	300
87	2	0	0	0	1	0.577409029006958	1	1	264.983479976654	100
88	2	0	0	0	1	0.789062023162842	1	1	267.595928907394	400
89	2	0	0	0	2	0.682962894439697	2	1	270.508430957794	200
90	2	0	0	0	2	0.633847951889038	2	1	273.214173793793	100
91	2	0	1	0	2	0.548961877822876	2	1	275.819983959198	500
92	2	0	0	0	2	0.583752870559692	2	1	278.832504987717	400
93	2	0	0	0	1	0.550605773925781	1	1	281.744890928268	100
94	2	0	0	0	2	0.578022003173828	2	1	284.350631952286	200
95	2	0	0	0	1	0.600322008132935	1	1	287.063131809235	400
96	2	0	0	0	2	0.654664039611816	2	1	289.968943834305	100
97	2	0	0	0	2	0.513540983200073	2	1	292.574680805206	300
98	2	0	0	0	1	0.604467153549194	1	1	295.387199878693	200
99	2	0	0	0	1	0.939173936843872	1	1	298.099637985229	500
100	2	0	0	0	1	0.56681489944458	1	1	301.105441808701	400
101	2	0	0	0	1	0.549668788909912	1	1	304.017840862274	100
102	2	0	0	0	2	0.497185945510864	2	1	306.623558998108	200
103	2	0	0	0	1	0.565991878509521	1	1	309.336057901382	500
104	2	0	0	0	1	0.641882181167603	1	1	312.341899871826	500
105	2	0	0	0	1	0.774441003799438	1	1	315.354278802872	100
106	2	0	0	0	2	0.529531955718994	2	1	317.966628789902	400
107	2	0	0	0	1	0.575222969055176	1	1	320.879172801971	300
108	2	0	1	0	2	0.490313053131104	2	1	323.684894800186	400
109	2	0	0	0	1	0.641128063201904	1	1	326.5973508358	400
110	2	0	0	0	1	0.535845994949341	1	1	329.503072023392	400
111	2	0	0	0	1	0.524912118911743	1	1	332.408818006516	300
112	2	0	0	0	1	0.497664213180542	1	1	335.214570999146	200
113	2	0	0	0	2	0.567183971405029	2	1	337.927014827728	100
114	2	0	0	0	1	0.650983095169067	1	1	340.532836914062	400
115	2	0	0	0	2	0.528218030929565	2	1	343.445338010788	300
116	2	0	0	0	2	0.739858150482178	2	1	346.251070022583	300
117	2	1	0	0	2	0.543606042861938	2	1	349.06352186203	200
118	2	0	0	0	1	0.693761110305786	1	1	351.775964021683	200
119	2	1	0	0	1	0.596575021743774	1	1	354.481738805771	300
120	2	0	0	0	2	0.599665880203247	2	1	357.287552833557	100
121	3	0	0	0	2	0.468865156173706	2	1	385.505833864212	400
122	3	1	0	0	2	0.515809059143066	2	1	388.417787790298	400
123	3	0	0	0	1	0.731096029281616	1	1	391.323436975479	200
124	3	0	0	0	2	0.439545154571533	2	1	394.029196977615	500
125	3	0	0	0	1	0.491096973419189	1	1	397.034995794296	300
126	3	0	0	0	1	0.479944944381714	1	1	399.847370862961	200
127	3	0	0	0	1	0.533524990081787	1	1	402.559793949127	100
128	3	0	1	0	2	0.513016939163208	2	1	405.165614843369	400
129	3	0	0	0	2	0.511783123016357	2	1	408.078106880188	300
130	3	0	0	0	2	0.481892108917236	2	1	410.883883953094	300
131	3	0	0	0	1	0.58216404914856	1	1	413.696295976639	300
132	3	0	0	0	1	0.521575927734375	1	1	416.508716821671	500
133	3	0	0	0	1	0.58071494102478	1	1	419.521176815033	500
134	3	0	0	0	2	0.602029085159302	2	1	422.53355383873	200
135	3	0	0	0	2	0.543505907058716	2	1	425.245895862579	400
136	3	0	0	0	2	0.501683950424194	2	1	428.151714801788	400
137	3	0	0	0	2	0.483386993408203	2	1	431.057448863983	200
138	3	0	0	0	1	0.465332984924316	1	1	433.763200998306	500
139	3	0	0	0	1	0.501198053359985	1	1	436.769026994705	400
140	3	1	0	0	2	0.78718113899231	2	1	439.6813788414	200
141	3	0	0	0	2	0.585408926010132	2	1	442.387105941772	500
142	3	0	1	0	1	0.509814023971558	1	1	445.392939805984	100
143	3	0	0	0	2	0.569113969802856	2	1	448.005301952362	300
144	3	0	1	0	2	0.579861879348755	2	1	450.817807912827	100
145	3	0	0	0	1	0.655320882797241	1	1	453.430235862732	200
146	3	1	0	0	1	0.605820894241333	1	1	456.142707824707	200
147	3	0	0	0	1	0.508033037185669	1	1	458.848545789719	100
148	3	0	0	0	1	0.566836833953857	1	1	461.454341888428	400
149	3	0	0	0	2	0.540707111358643	2	1	464.366824865341	500
150	3	0	0	0	1	0.504848957061768	1	1	467.372568845749	100
151	3	0	0	0	2	0.54901385307312	2	1	469.984946966171	200
152	3	0	0	0	1	0.506730794906616	1	1	472.697477817535	200
153	3	0	0	0	1	0.521269083023071	1	1	475.403259992599	300
154	3	1	0	0	1	0.539853096008301	1	1	478.209053993225	500
155	3	0	0	0	1	0.519474983215332	1	1	481.22150182724	300
156	3	0	0	0	2	0.563142061233521	2	1	484.033864021301	400
157	3	0	0	0	2	0.56230092048645	2	1	486.946280956268	300
158	3	0	0	0	1	0.596579790115356	1	1	489.752058982849	100
159	3	1	0	0	1	0.712671995162964	1	1	492.364457845688	200
160	3	0	0	0	2	0.598013162612915	2	1	495.07696890831	300
161	3	0	0	0	1	0.610819101333618	1	1	497.882776975632	400
162	3	0	0	0	1	0.599899053573608	1	1	500.795215845108	100
163	3	0	0	0	1	0.70033597946167	1	1	503.400949001312	300
164	3	0	0	0	2	0.825949907302856	2	1	506.213445901871	400
165	3	0	0	0	2	0.614113092422485	2	1	509.125869989395	200
166	3	0	0	0	1	0.555907011032104	1	1	511.831627845764	400
167	3	0	0	0	2	0.75423002243042	2	1	514.737447977066	100
168	3	0	1	0	1	0.589355945587158	1	1	517.343163967133	500
169	3	0	0	0	2	0.705528974533081	2	1	520.355654001236	500
170	3	0	0	0	2	0.628911018371582	2	1	523.368040800095	100
171	3	1	0	0	2	0.48009991645813	2	1	525.980406999588	100
172	3	0	0	0	2	0.467058897018433	2	1	528.592885971069	100
173	3	0	1	0	1	0.446319103240967	1	1	531.205399990082	400
174	3	0	0	0	2	0.429595947265625	2	1	534.117913007736	100
175	3	0	0	0	1	0.472270965576172	1	1	536.723650932312	200
176	3	0	0	0	1	0.590596914291382	1	1	539.436136960983	300
177	3	0	0	0	1	0.561992883682251	1	1	542.241946935654	500
178	3	0	1	0	2	0.429352045059204	2	1	545.254384994507	500
179	3	0	0	0	2	0.513906955718994	2	1	548.266752004623	500
180	3	0	0	0	2	0.516701936721802	2	1	551.279126882553	300
181	4	0	0	0	1	0.477568864822388	1	1	582.589039802551	100
182	4	0	0	0	1	0.426458835601807	1	1	585.201454877853	200
183	4	0	0	0	2	0.495836973190308	2	1	587.91396188736	200
184	4	0	0	0	1	0.421728134155273	1	1	590.619763851166	500
185	4	0	0	0	2	0.545114994049072	2	1	593.625593900681	200
186	4	0	0	0	2	0.423834800720215	2	1	596.33789896965	500
187	4	0	0	0	2	0.515727043151855	2	1	599.34373497963	500
188	4	0	0	0	1	0.423013925552368	1	1	602.356083869934	100
189	4	0	1	0	2	0.426714897155762	2	1	604.968485832214	100
190	4	0	0	0	2	0.437661170959473	2	1	607.580971956253	300
191	4	0	0	0	1	0.546721935272217	1	1	610.393479824066	100
192	4	1	0	0	1	0.532322883605957	1	1	613.005942821503	500
193	4	0	0	0	1	0.576440095901489	1	1	616.018409013748	400
194	4	0	0	0	2	0.5189368724823	2	1	618.930745840073	100
195	4	0	0	0	2	0.514430046081543	2	1	621.5364818573	200
196	4	1	0	0	2	0.528975009918213	2	1	624.248987913132	200
197	4	0	0	0	1	0.558668851852417	1	1	626.954775810242	500
198	4	0	0	0	1	0.54532790184021	1	1	629.960590839386	300
199	4	0	0	0	2	0.532500982284546	2	1	632.772959947586	400
200	4	0	0	0	1	0.64451003074646	1	1	635.685387849808	200
201	4	1	0	0	1	0.611104965209961	1	1	638.391119003296	500
202	4	0	0	0	1	0.549286127090454	1	1	641.396919965744	100
203	4	0	0	0	1	0.54422402381897	1	1	644.009269952774	300
204	4	0	0	0	2	0.507875919342041	2	1	646.82178401947	300
205	4	0	0	0	2	0.520466804504395	2	1	649.634217977524	400
206	4	1	0	0	2	0.702101945877075	2	1	652.546635866165	100
207	4	0	0	0	2	0.706086874008179	2	1	655.152369976044	300
208	4	0	0	0	2	0.580331802368164	2	1	657.964890003204	400
209	4	0	0	0	1	0.899780988693237	1	1	660.877329826355	300
210	4	0	0	0	2	0.551615953445435	2	1	663.683043956757	200
211	4	0	0	0	2	0.54120397567749	2	1	666.395478963852	400
212	4	0	0	0	1	0.594813108444214	1	1	669.30127286911	500
213	4	0	0	0	2	0.550637006759644	2	1	672.307009935379	500
214	4	0	1	0	2	0.545964956283569	2	1	675.31938290596	500
215	4	0	0	0	1	0.566519975662231	1	1	678.331758975983	100
216	4	0	1	0	1	0.505754947662354	1	1	680.944116830826	300
217	4	0	0	0	1	0.501430034637451	1	1	683.756604909897	300
218	4	0	0	0	1	0.600363969802856	1	1	686.569034814835	400
219	4	1	0	0	1	0.583045959472656	1	1	689.481477022171	400
220	4	0	0	0	1	0.620795965194702	1	1	692.387198925018	400
221	4	0	1	0	1	0.587738990783691	1	1	695.292922973633	400
222	4	0	0	0	2	0.529191970825195	2	1	698.198665857315	300
223	4	0	0	0	1	0.647309064865112	1	1	701.00440788269	100
224	4	0	0	0	2	0.520675897598267	2	1	703.616828918457	200
225	4	0	0	0	2	0.551046133041382	2	1	706.329329013824	300
226	4	0	0	0	2	0.625639915466309	2	1	709.135138988495	200
227	4	0	0	0	1	0.60840892791748	1	1	711.847548961639	400
228	4	0	1	0	1	0.494138956069946	1	1	714.753355979919	100
229	4	0	0	0	2	0.593576192855835	2	1	717.359085798264	500
230	4	0	0	0	2	0.637975931167603	2	1	720.371574878693	200
231	4	0	0	0	1	0.723589897155762	1	1	723.083943843842	100
232	4	0	1	0	2	0.535646915435791	2	1	725.68972992897	400
233	4	0	0	0	2	0.509124994277954	2	1	728.602235794067	400
234	4	0	0	0	2	0.627037048339844	2	1	731.507972955704	300
235	4	0	0	0	1	0.590950965881348	1	1	734.313709974289	300
236	4	0	0	0	2	0.434360027313232	2	1	737.126106023788	200
237	4	1	0	0	2	0.72123908996582	2	1	739.838549852371	200
238	4	0	0	0	1	0.534554958343506	1	1	742.544350862503	100
239	4	0	0	0	1	0.63396692276001	1	1	745.150156021118	500
240	4	0	0	0	1	0.590070009231567	1	1	748.162654876709	500
