TrialNum	Block	Odd: Visual	Odd: Audio	Odd: Haptic	CueDirection	RT	RespDirection	Acc	TrialTime	ITI
1	1	0	0	0	1	0.297321400000328	1	1	0.000193100000615232	500
2	1	0	0	0	2	0.478107400000226	2	1	3.01400250000006	200
3	1	0	0	0	2	0.432551699999749	2	1	5.72946170000068	400
4	1	0	0	0	2	0.477416200000334	2	1	8.64520340000036	400
5	1	0	0	0	1	0.456023699999605	1	1	11.5604545000006	100
6	1	0	0	0	1	0.230127599999832	2	2	14.1761662000008	100
7	1	0	0	0	1	0.438339399999677	1	1	16.7918000000009	100
8	1	0	0	0	1	0.458431399999427	1	1	19.4076360000008	500
9	1	0	0	0	1	0.479861300000266	1	1	22.4232073000003	400
10	1	0	0	0	2	0.426452900000186	2	1	25.3393001000004	100
11	1	0	0	0	1	0.410136800000146	1	1	27.9545889000001	500
12	1	0	0	0	2	0.474630600000637	2	1	30.9703069000007	300
13	1	0	1	0	1	0.580930799999805	1	1	33.7859198000006	100
14	1	0	0	0	2	0.516203499999392	2	1	36.4015640000007	300
15	1	0	0	0	1	0.428056900000229	1	1	39.2173159000004	400
16	1	1	0	0	1	0.533835699999145	1	1	42.1334128000008	200
17	1	0	0	0	1	0.499727299999904	1	1	44.8485832000006	100
18	1	0	0	0	2	0.524429200000668	2	1	47.4643127000008	400
19	1	0	0	0	1	0.449653300000136	1	1	50.3802775000004	500
20	1	0	0	0	1	0.425313200000346	1	1	53.3956296000006	400
21	1	0	0	0	1	0.473076700000092	1	1	56.3111199000004	500
22	1	0	0	0	1	0.420859700000619	1	1	59.3274092000001	500
23	1	1	0	0	1	0.622150899999724	1	1	62.3430310000003	200
24	1	0	0	0	1	0.40173490000052	1	1	65.0580532000004	300
25	1	0	0	0	1	0.417655700000068	1	1	67.8737414000007	200
26	1	0	0	0	2	0.598011800000677	2	1	70.5892316000009	200
27	1	1	0	0	2	0.53029880000031	2	1	73.3056690000003	200
28	1	0	0	0	2	0.408604600000217	2	1	76.0208106	300
29	1	0	0	0	2	0.47241909999957	2	1	78.8370151000008	100
30	1	0	0	0	1	0.468529499999931	1	1	81.4521528000005	100
31	1	1	0	0	2	0.458963600000061	2	1	84.0679047000003	400
32	1	0	0	0	1	0.402707100000043	1	1	86.9836115000007	200
33	1	0	0	0	2	0.406586799999786	2	1	89.6991426000004	200
34	1	0	0	0	1	0.452625899999475	1	1	92.4149357000006	300
35	1	0	1	0	2	0.572864900000241	2	1	95.2312626000003	500
36	1	0	0	0	2	0.4721227	2	1	98.2468533000001	100
37	1	0	0	0	2	0.420493599999645	2	1	100.861901	100
38	1	0	0	0	1	0.47617850000006	1	1	103.477632300001	500
39	1	1	0	0	2	0.513731999999436	2	1	106.4938227	400
40	1	0	0	0	2	0.45208300000013	2	1	109.4926082	400
41	1	0	1	0	2	0.446671800000331	2	1	112.4078502	500
42	1	0	0	0	1	0.40012839999963	1	1	115.4235217	400
43	1	0	0	0	1	0.497202800000196	1	1	118.339468200001	200
44	1	0	1	0	1	0.510893700000452	1	1	121.055143400001	500
45	1	0	0	0	2	0.460926600000676	2	1	124.070776	400
46	1	0	0	0	2	0.443234100000154	2	1	126.9859888	300
47	1	0	0	0	2	0.497336200000063	2	1	129.8015396	200
48	1	1	0	0	1	0.556204099999377	1	1	132.517749500001	300
49	1	0	0	0	2	0.444355300000097	2	1	135.383438600001	500
50	1	0	0	0	2	0.383821699999316	2	1	138.398618900001	400
51	1	0	0	0	1	0.454407600000195	1	1	141.314222100001	300
52	1	0	0	0	2	0.463156199999503	2	1	144.1298284	300
53	1	0	0	0	2	0.453772699999718	2	1	146.945508600001	100
54	1	0	1	0	2	0	0	99	149.561149900001	200
55	1	0	0	0	2	0.392440599999645	2	1	152.8139041	300
56	1	0	0	0	2	0.394523900000422	2	1	155.626292700001	300
57	1	0	1	0	1	0.420421599999827	1	1	158.4412343	500
58	1	0	0	0	1	0.476776200000131	1	1	161.5908626	300
59	1	0	0	0	2	0.415591299999505	2	1	164.4059176	100
60	1	0	0	0	1	0.442927800000689	1	1	167.0215869	200
61	2	0	1	0	1	0.380493300000126	1	1	215.6717046	400
62	2	0	0	0	2	0.33954470000026	2	1	218.586904100001	300
63	2	1	0	0	1	0.334936000000198	1	1	221.402813600001	300
64	2	0	0	0	1	0.336736700000074	1	1	224.2182301	400
65	2	0	1	0	2	0.410679599999639	2	1	227.1341754	300
66	2	0	0	0	1	0.401933400000416	1	1	229.9491802	100
67	2	0	0	0	2	0.381316699999843	2	1	232.564690300001	100
68	2	0	0	0	1	0.392770600000404	1	1	235.197092500001	500
69	2	0	0	0	1	0.47883499999989	1	1	238.2132744	500
70	2	0	0	0	2	0.36128970000027	2	1	241.228553000001	200
71	2	0	0	0	2	0.454281999999694	2	1	243.9443952	200
72	2	0	0	0	2	0.403594499999599	2	1	246.660035000001	300
73	2	0	0	0	2	0.380952800000159	2	1	249.4758725	500
74	2	0	0	0	1	0.371739000000161	1	1	252.491500900001	400
75	2	0	0	0	1	0.369346299999961	1	1	255.490533	200
76	2	0	0	0	2	0.381185900000673	2	1	258.2061479	200
77	2	0	0	0	2	0.458001500000137	2	1	260.9214262	400
78	2	0	0	0	2	0.40494149999995	2	1	263.8371169	400
79	2	1	0	0	2	0.516710900000362	2	1	266.753326100001	500
80	2	0	0	0	1	0.565944099999797	1	1	269.768373700001	400
81	2	0	0	0	2	0.410436199999822	2	1	272.6838278	200
82	2	0	0	0	1	0.39652229999956	1	1	275.399414	500
83	2	0	0	0	2	0.387611500000276	2	1	278.4151287	200
84	2	1	0	0	2	0.468935100000635	2	1	281.1308711	100
85	2	0	0	0	2	0.451592100000198	2	1	283.7465994	400
86	2	0	1	0	1	0.487642000000051	1	1	286.662181500001	300
87	2	0	0	0	1	0.364743500000259	1	1	289.4783248	300
88	2	0	0	0	1	0.447122100000342	1	1	292.2939456	400
89	2	0	0	0	2	0.408660699999928	2	1	295.209671500001	300
90	2	0	0	0	1	0.470450200000414	1	1	298.0252447	400
91	2	0	0	0	2	0.369691900000362	2	1	300.940530600001	500
92	2	0	0	0	1	0.360922100000607	1	1	303.9561644	200
93	2	0	0	0	2	0.394133599999805	2	1	306.6716439	200
94	2	0	0	0	1	0.415290400000231	1	1	309.387791300001	500
95	2	0	0	0	2	0.441047600000275	2	1	312.403715400001	400
96	2	0	0	0	1	0.397449699999925	1	1	315.3193436	200
97	2	0	0	0	1	0.456723199999942	1	1	318.0342301	300
98	2	0	0	0	1	0.421602899999925	1	1	320.850027300001	200
99	2	0	1	0	2	0.415391599999566	2	1	323.5655972	400
100	2	0	0	0	2	0.382263899999998	2	1	326.481616900001	100
101	2	0	0	0	2	0.351184600000124	2	1	329.1969821	100
102	2	1	0	0	1	0.559133499999916	1	1	331.813135	100
103	2	0	0	0	1	0.491314899999452	1	1	334.428318400001	300
104	2	0	0	0	2	0.514228800000637	2	1	337.244603	100
105	2	0	1	0	2	0.386855699999614	2	1	339.8598418	500
106	2	0	0	0	2	0.433474700000261	2	1	342.8755836	500
107	2	1	0	0	2	0.46423490000052	2	1	345.8911815	500
108	2	0	0	0	2	0.425459999999475	2	1	348.906769800001	200
109	2	0	1	0	1	0.375959800000601	1	1	351.622571700001	100
110	2	0	0	0	1	0.413031799999771	1	1	354.2380435	100
111	2	0	0	0	1	0.367581800000153	1	1	356.8536448	200
112	2	0	0	0	1	0.449207499999829	1	1	359.5699045	500
113	2	1	0	0	1	0.469505700000809	1	1	362.5850722	300
114	2	0	0	0	1	0.460891900000206	1	1	365.4012014	100
115	2	0	0	0	1	0.393547699999544	1	1	368.016932400001	300
116	2	0	0	0	2	0.445959699999548	2	1	370.8321918	100
117	2	0	0	0	1	0.357693899999504	1	1	373.4478391	500
118	2	0	0	0	2	0.447575099999995	2	1	376.4634744	300
119	2	0	0	0	1	0.373115899999902	1	1	379.3962337	100
120	2	0	0	0	2	0.47044779999942	2	1	382.0118515	400
121	3	0	0	0	1	0.611673600000358	1	1	421.1507435	100
122	3	0	0	0	1	0.304038799999944	1	1	423.7635786	100
123	3	0	0	0	2	0.409603700000844	2	1	426.3789606	200
124	3	0	0	0	2	0.382533400000284	2	1	429.0946638	300
125	3	1	0	0	2	0.431125200000679	2	1	431.910388300001	200
126	3	0	0	0	1	0.361255800000436	1	1	434.626398400001	200
127	3	0	0	0	2	0.352960900000653	2	1	437.3417267	300
128	3	1	0	0	2	0.341298499999539	2	1	440.157409900001	300
129	3	0	0	0	1	0.431759400000374	1	1	442.9729499	300
130	3	0	0	0	1	0.429970199999843	1	1	445.7887452	100
131	3	0	0	0	1	0.409624999999323	1	1	448.4050311	300
132	3	0	0	0	2	0.389383099999577	2	1	451.2201407	500
133	3	0	0	0	1	0.302584399999432	1	1	454.2360269	500
134	3	0	0	0	2	0.426676099999895	2	1	457.251901600001	300
135	3	0	0	0	1	0.379704500000116	1	1	460.0672973	400
136	3	1	0	0	1	0.466108300000087	1	1	462.983018700001	200
137	3	0	0	0	2	0.447054299999763	2	1	465.6982662	400
138	3	0	0	0	2	0.366854500000045	2	1	468.6142178	200
139	3	0	0	0	2	0.435524499999701	2	1	471.329581800001	200
140	3	1	0	0	1	0.446531200000209	1	1	474.045291300001	400
141	3	0	0	0	1	0.444096500000342	1	1	476.960994900001	500
142	3	1	0	0	2	0.401482100000067	2	1	479.976602700001	300
143	3	0	0	0	2	0.447188099999948	2	1	482.792193200001	100
144	3	0	0	0	1	0.399048700000094	1	1	485.407860200001	100
145	3	0	0	0	1	0.412914300000011	1	1	488.024029900001	300
146	3	0	0	0	1	0.397342600000229	1	1	490.839311500001	500
147	3	0	0	0	1	0.459162399999514	1	1	493.855437200001	500
148	3	0	0	0	1	0.438495700000203	1	1	496.870580500001	300
149	3	0	0	0	2	0.364280900000267	2	1	499.6865717	200
150	3	0	0	0	1	0.402385899999899	1	1	502.401840400001	400
151	3	0	0	0	1	0.38481419999971	1	1	505.317361900001	400
152	3	0	1	0	1	0.408813699999882	1	1	508.233548800001	400
153	3	0	0	0	2	0.424014799999895	2	1	511.148766400001	500
154	3	0	0	0	2	0.384840800000347	2	1	514.1643948	100
155	3	0	1	0	1	0.437059699999736	1	1	516.7798357	100
156	3	0	0	0	1	0.399747499999648	1	1	519.3960008	400
157	3	0	0	0	1	0.427212399999917	1	1	522.3114493	200
158	3	0	1	0	2	0.336081299999933	2	1	525.0270784	500
159	3	0	0	0	1	0.380753299999924	1	1	528.043193	400
160	3	0	0	0	2	0.453795100000207	2	1	530.9583582	500
161	3	0	0	0	1	0.443612199999734	1	1	533.9743236	300
162	3	0	0	0	2	0.398145000000113	2	1	536.7895747	300
163	3	0	0	0	2	0.43958449999991	2	1	539.6056427	100
164	3	0	0	0	1	0.344638000000486	1	1	542.220887500001	400
165	3	0	0	0	2	0.383383000000322	2	1	545.13705	400
166	3	0	0	0	2	0.367124800000056	2	1	548.052842	500
167	3	0	0	0	1	0.430884200000037	1	1	551.0678803	500
168	3	0	1	0	2	0.551741300000685	2	1	554.083966200001	400
169	3	0	0	0	2	0.493204100000185	2	1	556.9990649	200
170	3	0	0	0	2	0.421386400000301	2	1	559.7146867	300
171	3	0	0	0	2	0.383995000000141	2	1	562.5306675	200
172	3	0	0	0	2	0.430014699999447	2	1	565.3130399	200
173	3	0	0	0	2	0.442039199999272	2	1	568.0283909	100
174	3	0	0	0	1	0.46479410000029	1	1	570.6439441	500
175	3	0	1	0	1	0.480605499999911	1	1	573.6601722	100
176	3	0	0	0	2	0.451897600000848	2	1	576.275393700001	100
177	3	0	0	0	1	0.520969599999262	1	1	578.891141100001	200
178	3	0	1	0	2	0.372001200000341	2	1	581.607113900001	400
179	3	0	0	0	2	0.420416099999784	2	1	584.522984800001	100
180	3	1	0	0	1	0.383785900000476	1	1	587.2052386	500
181	4	0	0	0	2	0.459801699999844	2	1	637.272562800001	300
182	4	0	0	0	2	0.350458500000059	2	1	640.0864079	300
183	4	0	0	0	2	0.376552499999889	2	1	642.901677600001	400
184	4	0	0	0	1	0.301251300000331	1	1	645.8171723	100
185	4	1	0	0	2	0.345473600000332	2	1	648.4335467	200
186	4	0	0	0	2	0.439615299999787	2	1	651.149089500001	400
187	4	0	1	0	1	0.400473299999248	1	1	654.0642665	500
188	4	0	0	0	2	0.332270100000642	2	1	657.0798728	500
189	4	0	0	0	2	0.399901499999942	2	1	660.095562500001	300
190	4	0	0	0	2	0.394186399999853	2	1	662.9116021	500
191	4	0	0	0	1	0.391333900000063	1	1	665.926850100001	500
192	4	0	0	0	2	0.362730899999406	2	1	668.9423083	400
193	4	0	1	0	2	0.465608800000155	2	1	671.857927200001	200
194	4	0	0	0	2	0.370666100000562	2	1	674.5740708	100
195	4	0	0	0	1	0.420920200000182	1	1	677.2060024	100
196	4	0	0	0	2	0.39120610000009	2	1	679.8217523	400
197	4	0	0	0	2	0.417997300000025	2	1	682.737480700001	100
198	4	1	0	0	1	0.440003900000193	1	1	685.3536793	300
199	4	0	0	0	2	0.367236000000048	2	1	688.1687054	300
200	4	1	0	0	2	0.438946100000067	2	1	690.984475300001	200
201	4	0	0	0	2	0.383045999999922	2	1	693.7001342	100
202	4	0	0	0	1	0.425422499999513	2	2	696.316355800001	100
203	4	0	0	0	2	0.463576299999659	2	1	698.931584800001	400
204	4	0	0	0	1	0.313201699999809	1	1	701.8473284	300
205	4	0	0	0	2	0.393303500000002	2	1	704.663507200001	500
206	4	0	1	0	2	0.431140700000469	2	1	707.678967600001	500
207	4	0	0	0	1	0.473228599999857	1	1	710.6940389	400
208	4	0	0	0	2	0.406636600000638	2	1	713.610367400001	300
209	4	0	0	0	1	0.410182800000257	1	1	716.425271800001	300
210	4	0	1	0	1	0.427169700000377	1	1	719.241606000001	100
211	4	0	0	0	2	0.404530899999372	2	1	721.857195600001	200
212	4	0	0	0	1	0.372721300000194	1	1	724.572740500001	300
213	4	0	1	0	1	0.346951300000001	1	1	727.4052216	500
214	4	0	0	0	2	0.450186099999883	2	1	730.4204565	300
215	4	0	0	0	1	0.324686099999781	1	1	733.2364428	300
216	4	0	0	0	1	0.404040600000371	1	1	736.0517098	200
217	4	0	0	0	1	0.405721200000698	1	1	738.7677897	200
218	4	1	0	0	1	0.395744599999489	1	1	741.483486700001	100
219	4	0	0	0	1	0.392920300000696	1	1	744.098646900001	400
220	4	0	0	0	2	0.364097900000161	2	1	747.014491800001	300
221	4	0	0	0	1	0.42760460000045	1	1	749.830128400001	200
222	4	0	0	0	1	0.397329000000354	1	1	752.5462286	200
223	4	0	0	0	2	0.482215900000483	2	1	755.3120153	200
224	4	0	0	0	2	0.433834800000113	2	1	758.027559300001	400
225	4	1	0	0	2	0.408669600000394	2	1	760.9434584	100
226	4	0	0	0	2	0.461988400000337	2	1	763.5583438	500
227	4	0	0	0	1	0.389223700000002	1	1	766.574071	200
228	4	0	0	0	1	0.401478499999939	1	1	769.306829200001	400
229	4	0	0	0	1	0.389975500000219	1	1	772.2221845	400
230	4	0	0	0	2	0.458873200000198	2	1	775.1377874	200
231	4	0	0	0	1	0.439467600000171	1	1	777.853942700001	500
232	4	0	0	0	1	0.359001200000421	1	1	780.869136200001	100
233	4	1	0	0	1	0.407691200000045	1	1	783.4845812	400
234	4	0	0	0	1	0.397930900000574	1	1	786.4002907	200
235	4	0	1	0	2	0.449755099999493	2	1	789.1160502	100
236	4	0	0	0	2	0.346687500000371	2	1	791.7322123	500
237	4	0	0	0	1	0.504197899999781	1	1	794.7481149	500
238	4	0	0	0	1	0.353681900000083	1	1	797.763420200001	100
239	4	0	0	0	1	0.422069299999748	1	1	800.378661700001	500
240	4	0	0	0	1	0.440631999999823	1	1	803.394426600001	400
