TrialNum	Block	Odd: Visual	Odd: Audio	Odd: Haptic	CueDirection	RT	RespDirection	Acc	TrialTime	ITI
1	1	0	0	0	1	0.369878996658372	1	1	0.000188310805242509	400
2	1	0	0	0	1	0.414979595399927	1	1	2.91386657263502	400
3	1	0	0	0	2	0.362852790043689	2	1	5.82910746129346	100
4	1	0	0	0	1	0.357341089897091	1	1	8.44531912906677	500
5	1	0	0	0	1	0.349313339247601	1	1	11.460860063904	500
6	1	0	0	0	2	0.491724429739406	2	1	14.4759348733351	400
7	1	0	0	0	2	0.464254149643239	2	1	17.3920316618751	400
8	1	0	0	0	1	0.412662121350877	1	1	20.3071394176804	300
9	1	0	0	0	1	0.429065051284852	1	1	23.1233923405816	400
10	1	0	0	0	1	0.452429385855794	1	1	26.0391587030317	400
11	1	0	0	0	2	0.437757183011854	2	1	28.9542051856406	200
12	1	0	0	0	2	0.455174168251688	2	1	31.6698263530561	400
13	1	0	0	0	2	0.43951549907797	2	1	34.5860158533906	100
14	1	0	0	0	1	0.481743636162719	1	1	37.2011711199884	200
15	1	0	0	0	1	0.443324061081512	1	1	39.9174608388857	200
16	1	0	0	0	2	0.332282920455327	2	1	42.6329353997717	100
17	1	0	0	0	2	0.450395500811283	2	1	45.2488612328889	400
18	1	0	0	0	2	0.410902842850192	2	1	48.1644187531783	500
19	1	0	0	0	2	0.4048047165561	2	1	51.1799670664477	100
20	1	0	1	0	1	0.602528818446444	1	1	53.7957363481692	200
21	1	0	0	0	2	0.528763914393494	2	1	56.5109773651639	300
22	1	0	0	0	2	0.394422920420766	2	1	59.3271661276522	300
23	1	1	0	0	2	0.49864926293958	2	1	62.1426876218757	300
24	1	0	0	0	1	0.393043792370008	1	1	64.9585395422182	200
25	1	0	0	0	1	0.389828714163741	1	1	67.6736438975204	200
26	1	0	0	0	1	0.410490612208378	1	1	70.3897180374479	400
27	1	1	0	0	1	0.404826531099388	1	1	73.3055315577658	500
28	1	0	0	0	2	0.382857364689698	2	1	76.320530337136	100
29	1	0	0	0	1	0.438452681846684	1	1	78.9368815537891	100
30	1	1	0	0	2	0.429103547532577	2	1	81.5525869959092	100
31	1	0	0	0	2	0.424134002882056	2	1	84.167741620884	300
32	1	0	1	0	1	0.453672814619495	1	1	86.9833442780364	500
33	1	0	0	0	2	0.368793723318959	2	1	89.9996528921765	100
34	1	0	1	0	2	0.5212917929166	2	1	92.6147375823057	500
35	1	0	0	0	1	0.383643650537124	1	1	95.6304703567585	500
36	1	0	0	0	2	0.410500557074556	2	1	98.6460478630324	500
37	1	0	0	0	1	0.367988830956165	1	1	101.661669960769	300
38	1	0	0	0	2	0.433193773758831	2	1	104.477252086566	400
39	1	0	0	0	1	0.35932717542164	1	1	107.393270920205	100
40	1	1	0	0	1	0.424186293588718	1	1	110.008852211933	300
41	1	0	0	0	2	0.376941774768056	2	1	112.824859400484	500
42	1	0	0	0	2	0.372079377993941	2	1	115.839939663536	100
43	1	0	0	0	2	0.385375340032624	2	1	118.455517747236	200
44	1	1	0	0	1	0.43044321690104	1	1	121.171238684095	100
45	1	0	0	0	2	0.395496003271546	2	1	123.786813559796	500
46	1	0	0	0	2	0.416600608179579	2	1	126.803237341868	200
47	1	0	0	0	1	0.476220387150533	1	1	129.518661536829	200
48	1	0	1	0	2	0.425665511895204	2	1	132.233975696668	300
49	1	0	0	0	1	0.417429239896592	1	1	135.050084579445	300
50	1	0	0	0	1	0.419897170126205	1	1	137.865355206479	400
51	1	0	0	0	1	0.367671878513647	1	1	140.781001909723	100
52	1	0	0	0	1	0.398877577768872	1	1	143.397037777962	200
53	1	0	0	0	1	0.453476804570528	1	1	146.11258676491	500
54	1	1	0	0	2	0.391758659330662	2	1	149.12859671234	400
55	1	0	0	0	2	0.420111465879017	2	1	152.043653139815	300
56	1	0	1	0	2	0.507564672880108	2	1	154.859276969917	500
57	1	0	0	0	1	0.416129029152216	1	1	157.875314506324	300
58	1	0	1	0	1	0.474052086065058	1	1	160.690558185946	200
59	1	0	0	0	1	0.468493869615486	1	1	163.406193789473	300
60	1	0	0	0	2	0.420138413261157	2	1	166.221910652122	200
61	2	0	0	0	2	0.381139148870716	2	1	175.369267227157	100
62	2	0	0	0	1	0.351195164112141	1	1	177.984625882236	400
63	2	0	0	0	2	0.315785353886895	2	1	180.900543984055	500
64	2	0	0	0	1	0.448945796320913	1	1	183.91568134987	400
65	2	0	0	0	2	0.296050253004069	2	1	186.831262609514	100
66	2	1	0	0	1	0.417483455443289	1	1	189.447402096819	300
67	2	0	0	0	2	0.376928301033331	2	1	192.262970107346	200
68	2	0	0	0	1	0.386981916730292	1	1	194.978636828659	100
69	2	0	0	0	1	0.36891691130586	1	1	197.593999012577	200
70	2	0	1	0	1	0.518788574438076	1	1	200.309573984501	500
71	2	0	0	0	1	0.473539123602677	1	1	203.325845385581	500
72	2	0	0	0	2	0.325663170020562	2	1	206.340861167439	300
73	2	0	0	0	2	0.348630993277766	2	1	209.156936686835	100
74	2	1	0	0	2	0.434229322796455	2	1	211.772426870768	100
75	2	0	0	0	1	0.410942622285802	1	1	214.388337305398	500
76	2	0	0	0	2	0.392901677056216	2	1	217.403714310378	400
77	2	0	0	0	1	0.375236070191022	1	1	220.319182006089	100
78	2	0	0	0	1	0.424123416421935	1	1	222.934900921886	300
79	2	0	1	0	2	0.426519166154321	2	1	225.751095779618	200
80	2	0	0	0	2	0.442671870492632	2	1	228.466929959599	300
81	2	0	0	0	2	0.333851321716793	2	1	231.282416486385	400
82	2	0	0	0	1	0.352405229466967	1	1	234.197685926454	400
83	2	0	1	0	2	0.413726542552467	2	1	237.113334233727	300
84	2	0	0	0	1	0.360875686950749	1	1	239.929397562606	400
85	2	0	0	0	1	0.43292269599624	1	1	242.844633960049	200
86	2	0	1	0	1	0.482383636262966	1	1	245.560804982175	200
87	2	0	0	0	1	0.443475158856018	1	1	248.276326059364	500
88	2	1	0	0	1	0.564572802337352	1	1	251.29191607688	300
89	2	0	0	0	2	0.517930428934051	2	1	254.107160718937	300
90	2	1	0	0	2	0.364947627473157	2	1	256.92379058426	400
91	2	0	0	0	1	0.33756300152163	1	1	259.839152736095	300
92	2	0	0	0	1	0.351230452331947	1	1	262.65420072648	200
93	2	0	0	0	2	0.38966478430666	2	1	265.37020108194	400
94	2	1	0	0	2	0.428763176547363	2	1	268.28541758965	200
95	2	0	0	0	1	0.423421822284581	1	1	271.001467027789	300
96	2	0	1	0	1	0.457663913024589	1	1	273.81688041173	500
97	2	0	0	0	1	0.451294708997011	1	1	276.832974730089	500
98	2	0	0	0	2	0.395677256456111	2	1	279.848127173638	100
99	2	0	0	0	1	0.413895926059922	1	1	282.463745036774	500
100	2	0	0	0	2	0.441088070743717	2	1	285.479466262361	200
101	2	0	0	0	1	0.415904467721703	1	1	288.195532382233	100
102	2	0	0	0	2	0.351106301939581	2	1	290.811341443419	200
103	2	0	0	0	2	0.362502794974716	2	1	293.526875994285	400
104	2	0	0	0	2	0.404187493404606	2	1	296.44214286792	100
105	2	0	1	0	2	0.540191846055677	2	1	299.057713252347	400
106	2	0	0	0	1	0.426888730115024	1	1	301.974121539708	300
107	2	0	0	0	1	0.354328758607153	1	1	304.789179474959	100
108	2	0	0	0	2	0.300894043233711	2	1	307.404840325587	100
109	2	0	0	0	2	0.433592851477442	2	1	310.020561487006	300
110	2	0	0	0	1	0.350467585056322	1	1	312.836868304643	300
111	2	0	0	0	2	0.440622586960671	2	1	315.651962490549	200
112	2	0	0	0	1	0.463957086962182	1	1	318.367498645413	400
113	2	1	0	0	1	0.557585733535234	1	1	321.283886080608	400
114	2	0	0	0	1	0.456650499312673	1	1	324.199500382878	500
115	2	0	0	0	2	0.401468375173863	2	1	327.214959833975	500
116	2	0	0	0	2	0.475621770514408	2	1	330.230187665991	500
117	2	0	0	0	2	0.42161923556705	2	1	333.246146285092	200
118	2	0	0	0	2	0.388500593660865	2	1	335.961366449948	500
119	2	0	0	0	1	0.334661026136018	1	1	338.97742419687	100
120	2	0	0	0	2	0.423279706999892	2	1	341.592660947179	200
121	3	0	1	0	2	0.372115628619213	2	1	350.892223020288	300
122	3	0	0	0	2	0.417436939140316	2	1	353.705688814953	500
123	3	0	0	0	2	0.456095190951601	2	1	356.720723844919	500
124	3	0	0	0	2	0.389112683973508	2	1	359.736318032898	500
125	3	0	0	0	2	0.384580713318428	2	1	362.752233022911	100
126	3	0	0	0	2	0.393798318778863	2	1	365.368027968798	100
127	3	0	0	0	2	0.359169661620399	2	1	367.983094694035	200
128	3	0	0	0	1	0.51492098486051	1	1	370.698960312613	400
129	3	1	0	0	2	0.421439265599474	2	1	373.614675025921	400
130	3	0	0	0	2	0.435686084936606	2	1	376.530697067588	200
131	3	0	0	0	2	0.44838022228214	2	1	379.245947708609	200
132	3	0	0	0	2	0.400302901311079	2	1	381.961616675544	400
133	3	0	0	0	2	0.385554989159573	2	1	384.877705123246	300
134	3	0	1	0	1	0.413111885834951	1	1	387.692959710141	400
135	3	0	0	0	2	0.417125440319069	2	1	390.608988488646	300
136	3	0	0	0	1	0.36942217455362	1	1	393.424683857593	500
137	3	0	0	0	2	0.495599718589801	2	1	396.440239228512	200
138	3	0	1	0	2	0.462831713346532	2	1	399.155804576352	300
139	3	0	0	0	2	0.442619258974446	2	1	401.971212827455	500
140	3	0	0	0	2	0.403112164931372	2	1	404.986871496629	500
141	3	0	0	0	1	0.386995069595287	1	1	408.002449323685	100
142	3	0	0	0	2	0.388137445726898	2	1	410.618556089175	300
143	3	1	0	0	1	0.620416420308175	1	1	413.434349944349	300
144	3	0	0	0	1	0.474004607356619	1	1	416.249437714199	200
145	3	0	1	0	1	0.44555074814707	1	1	418.96543454082	400
146	3	0	0	0	2	0.410656787687913	2	1	421.881162727805	300
147	3	0	1	0	2	0.366980870894622	2	1	424.69703646269	100
148	3	0	0	0	1	0.479738623311277	1	1	427.312094205437	200
149	3	1	0	0	2	0.451983150182059	2	1	430.02831238549	100
150	3	0	0	0	1	0.369500129454536	1	1	432.643389055564	100
151	3	0	0	0	2	0.334473677707138	2	1	435.259771390032	300
152	3	0	0	0	1	0.38492236752063	1	1	438.075337475748	300
153	3	0	0	0	1	0.581001717277104	2	2	440.890698248113	500
154	3	0	0	0	1	0.379970466950908	1	1	443.906897789566	200
155	3	0	0	0	1	0.356597791542299	1	1	446.621899167425	200
156	3	0	0	0	2	0.374234846996842	2	1	449.337604064174	500
157	3	0	0	0	2	0.382383860822301	2	1	452.353165530338	400
158	3	0	0	0	1	0.365450965880882	1	1	455.268878960429	400
159	3	0	0	0	2	0.376440040330635	2	1	458.184914796584	300
160	3	1	0	0	1	0.410113028192427	1	1	461.000588992581	400
161	3	0	0	0	1	0.386835951765534	1	1	463.915661139356	400
162	3	0	0	0	2	0.369646094390191	2	1	466.831669707317	500
163	3	1	0	0	1	0.456528594513657	1	1	469.847623835201	200
164	3	0	0	0	1	0.358968197921058	1	1	472.563003117859	100
165	3	1	0	0	2	0.394194830150809	2	1	475.178268098767	100
166	3	0	0	0	1	0.429805141611723	1	1	477.794491315406	100
167	3	0	0	0	1	0.42211294992012	1	1	480.409717158444	400
168	3	0	0	0	1	0.403461518348195	1	1	483.326042358065	300
169	3	0	0	0	2	0.370922886562767	2	1	486.141698268329	300
170	3	0	0	0	1	0.404183002159698	1	1	488.956822609616	400
171	3	0	0	0	1	0.458814309182344	1	1	491.872885393153	200
172	3	0	0	0	1	0.435550385649549	1	1	494.588329798629	200
173	3	0	0	0	1	0.328199751878856	1	1	497.303839647735	100
174	3	0	1	0	1	0.532001448736992	1	1	499.919528408151	100
175	3	0	0	0	1	0.420641110074939	1	1	502.535255023191	400
176	3	0	0	0	2	0.469429328426486	2	1	505.451009836746	500
177	3	0	0	0	1	0.528001367900288	1	1	508.466533448256	500
178	3	0	0	0	1	0.464140585710993	1	1	511.482790734066	200
179	3	0	0	0	2	0.396673988434486	2	1	514.198434036836	500
180	3	0	0	0	1	0.482519335520919	1	1	517.213509808673	100
181	4	0	0	0	1	0.492459387256531	1	1	528.276825868961	100
182	4	0	0	0	2	0.371820490719983	2	1	530.892160143092	100
183	4	0	0	0	2	0.379826747666812	2	1	533.507539650338	400
184	4	0	0	0	1	0.34854630153859	1	1	536.423212659371	100
185	4	0	1	0	1	0.442659038410056	1	1	539.039380056434	400
186	4	0	0	0	1	0.410981760156574	1	1	541.954997245921	500
187	4	0	0	0	2	0.359727536386345	2	1	544.970289559133	200
188	4	1	0	0	1	0.474982091225684	1	1	547.686261683994	500
189	4	0	0	0	1	0.359238954843022	1	1	550.701888593787	200
190	4	0	0	0	2	0.519177707348717	2	1	553.417514252418	300
191	4	1	0	0	2	0.429966184252407	2	1	556.233436749229	400
192	4	0	0	0	1	0.430899718223372	1	1	559.148358439823	100
193	4	0	0	0	2	0.46187732720864	2	1	561.764483811829	200
194	4	1	0	0	2	0.52887747832574	2	1	564.480497320183	300
195	4	0	0	0	1	0.369801362568978	1	1	567.295590543654	100
196	4	0	1	0	2	0.445338697987609	2	1	569.911267434392	100
197	4	0	0	0	2	0.453746278304607	2	1	572.527589137258	100
198	4	0	0	0	2	0.389165616303217	2	1	575.142719381285	100
199	4	0	0	0	1	0.324136793846264	1	1	577.758440863516	500
200	4	0	0	0	1	0.460695492452942	1	1	580.774788294686	200
201	4	0	0	0	1	0.473653970722808	1	1	583.489624459471	300
202	4	0	0	0	2	0.379924271459458	2	1	586.305795257067	200
203	4	0	0	0	2	0.443981063668616	2	1	589.021481547301	100
204	4	0	0	0	2	0.324550307675963	2	1	591.63682255827	400
205	4	0	0	0	2	0.398815983789973	2	1	594.552841071127	300
206	4	0	0	0	1	0.436576631414937	1	1	597.368222054036	500
207	4	1	0	0	1	0.398203893448226	1	1	600.383714547759	100
208	4	0	0	0	1	0.479626984189963	1	1	602.999741754349	200
209	4	0	0	0	1	0.381367559923092	2	2	605.715476164885	200
210	4	1	0	0	1	0.660556136019295	1	1	608.431118184439	400
211	4	0	0	0	1	0.481795285304543	1	1	611.34694132884	400
212	4	0	0	0	2	0.423294143081876	2	1	614.262643210037	200
213	4	0	0	0	2	0.464312214840902	2	1	616.978182252147	300
214	4	0	0	0	2	0.417298673448386	2	1	619.793543345324	400
215	4	0	0	0	1	0.410368386626942	1	1	622.709560574964	500
216	4	0	0	0	2	0.436484240432037	2	1	625.725399534887	300
217	4	0	0	0	1	0.325521054706769	1	1	628.54080425718	500
218	4	0	0	0	2	0.426017752557527	2	1	631.555936169374	100
219	4	1	0	0	2	0.435521834268002	2	1	634.171943486232	400
220	4	0	0	0	2	0.36171747156186	2	1	637.087752836116	500
221	4	0	0	0	1	0.392703100573272	1	1	640.103399635642	500
222	4	0	0	0	2	0.415599384956295	2	1	643.118618485198	300
223	4	0	0	0	2	0.434999247721862	2	1	645.934220821538	500
224	4	0	1	0	2	0.605365991825238	2	1	648.949789345323	400
225	4	0	0	0	1	0.406885117874481	1	1	651.865884209052	100
226	4	0	0	0	2	0.367449883488007	2	1	654.481096899224	500
227	4	0	1	0	1	0.359394864673959	1	1	657.497409683798	300
228	4	0	0	0	1	0.439373704575701	1	1	660.312282837054	300
229	4	0	0	0	2	0.41632215201389	2	1	663.128409684752	200
230	4	0	0	0	2	0.426824248919729	2	1	665.844230070245	200
231	4	0	0	0	1	0.409842271270463	1	1	668.55943579899	300
232	4	0	0	0	1	0.446500963851577	1	1	671.375011187978	200
233	4	0	0	0	1	0.53301357923192	1	1	674.090803984494	500
234	4	0	0	0	2	0.363343296368839	2	1	677.106512057188	400
235	4	0	1	0	2	0.435777834325563	2	1	680.022593126429	300
236	4	0	0	0	1	0.600444567506202	1	1	682.838097938948	500
237	4	0	0	0	2	0.40150238017668	2	1	685.853888457757	200
238	4	0	1	0	1	0.409440627059666	1	1	688.568981905788	400
239	4	0	0	0	1	0.42381897525047	1	1	691.485295556544	400
240	4	0	0	0	1	0.358177420857828	1	1	694.400171693269	300
