TrialNum	Block	Odd: Visual	Odd: Audio	Odd: Haptic	CueDirection	RT	RespDirection	Acc	TrialTime	ITI
1	1	0	0	0	2	0.62551504757721	2	1	0.000215899664908648	500
2	1	0	0	0	1	0.40955213480629	1	1	3.01494520058623	100
3	1	0	0	0	1	0.405776616593357	1	1	5.62975348293548	200
4	1	0	0	0	1	0.451958945079241	1	1	8.34595475147944	300
5	1	1	0	0	2	0.502493914333172	2	1	11.1616010968573	200
6	1	0	0	0	1	0.415727251616772	1	1	13.8768483004533	200
7	1	0	0	0	2	0.511204008187633	2	1	16.592869599117	400
8	1	0	0	0	1	0.416841075988486	1	1	19.5082173420233	500
9	1	0	0	0	1	0.508924710389692	1	1	22.5238557956181	500
10	1	0	0	0	1	0.519367134722415	1	1	25.5394381089136	200
11	1	0	0	0	1	0.437255308323074	1	1	28.2549573525321	500
12	1	0	1	0	1	0.985389716632199	1	1	31.2707202773308	100
13	1	0	0	0	1	0.484238679229748	1	1	33.8867174517363	200
14	1	0	0	0	2	0.46524271229282	2	1	36.6020512718242	200
15	1	0	0	0	2	0.445982083852869	2	1	39.3177549765678	100
16	1	1	0	0	2	0.556385434581898	2	1	41.934018416563	500
17	1	0	0	0	2	0.521997389965691	2	1	44.9497993062832	300
18	1	0	0	0	2	0.446826113795396	2	1	47.7651508346316	100
19	1	0	0	0	1	0.337279304279946	1	1	50.3808239990612	100
20	1	0	0	0	1	0.400303735339548	1	1	52.9961622462142	400
21	1	0	0	0	1	0.509175256651361	1	1	55.9118920642068	400
22	1	0	1	0	1	0.488297786330804	1	1	58.827505431138	400
23	1	0	0	0	2	0.393377300351858	2	1	61.7436580661451	500
24	1	0	0	0	2	0.422381646523718	2	1	64.7587514772895	300
25	1	0	0	0	2	0.541884865437169	2	1	67.574653501797	400
26	1	0	0	0	2	0.446282354474533	2	1	70.4903916606563	300
27	1	0	0	0	2	0.478908875549678	2	1	73.3062096350477	500
28	1	0	0	0	2	0.4219485638896	2	1	76.321915777924	400
29	1	0	0	0	2	0.468790781975258	2	1	79.2368929945515	300
30	1	0	0	0	1	0.443529873737134	1	1	82.0529592696694	400
31	1	0	0	0	2	0.443361131940037	2	1	84.9684751128079	400
32	1	0	0	0	1	0.394322062027641	1	1	87.8843666150351	500
33	1	0	0	0	1	0.562497353355866	2	2	90.8999344921904	400
34	1	0	0	0	2	0.486076232802588	2	1	93.8155988666695	200
35	1	0	0	0	1	0.467485118017066	1	1	96.5306253584567	500
36	1	0	1	0	2	0.501915187691338	2	1	99.5463401629822	100
37	1	0	0	0	1	0.388162022980396	1	1	102.161787482793	300
38	1	0	1	0	2	0.522034282155801	2	1	104.978201186401	500
39	1	0	0	0	1	0.462570432049688	1	1	107.993832261593	200
40	1	1	0	0	1	0.515715125307906	1	1	110.708766362455	300
41	1	0	0	0	2	0.41523482062621	2	1	113.525112376898	400
42	1	0	0	0	2	0.49212623690255	2	1	116.440255768946	300
43	1	0	0	0	2	0.524398913374171	2	1	119.255881903809	100
44	1	1	0	0	1	0.426998628245201	1	1	121.872072842554	100
45	1	0	0	0	1	0.492919259297196	1	1	124.487277315289	500
46	1	0	0	0	1	0.517340628837701	1	1	127.502998856653	500
47	1	0	0	0	1	0.510842464398593	1	1	130.518592077191	200
48	1	0	0	0	1	0.547655771835707	1	1	133.234175802034	100
49	1	0	0	0	1	0.46449588536052	1	1	135.850413577864	200
50	1	0	0	0	2	0.654729519039392	2	1	138.565616831533	300
51	1	0	0	0	2	0.554432071512565	2	1	141.381318354863	400
52	1	0	1	0	2	0.586597279296257	2	1	144.297353897127	100
53	1	0	0	0	2	0.546849917329382	2	1	146.913152495108	100
54	1	1	0	0	1	0.491659470018931	1	1	149.528330662113	200
55	1	0	0	0	2	0.461923374561593	2	1	152.243949675118	100
56	1	0	1	0	1	0.442899177083746	1	1	154.859765275614	400
57	1	0	0	0	2	0.460846442321781	2	1	157.775974050921	300
58	1	0	0	0	2	0.45029590773629	2	1	160.591099093144	200
59	1	1	0	0	2	0.572218935762066	2	1	163.306763660046	300
60	1	0	0	0	1	0.464725579600781	1	1	166.122341674578	300
61	2	0	1	0	1	0.506620710715652	1	1	180.751685493451	300
62	2	0	0	0	1	0.355894158477895	1	1	183.566229242482	200
63	2	0	0	0	1	0.376409764226992	1	1	186.28188611014	400
64	2	1	0	0	1	0.372683007910382	1	1	189.197590264026	400
65	2	0	0	0	2	0.540451522334479	2	1	192.113672643376	400
66	2	0	0	0	1	0.361918177513871	1	1	195.029172125622	300
67	2	0	0	0	2	0.483326960064005	2	1	197.845006140124	100
68	2	0	0	0	1	0.382943537610117	1	1	200.460072988819	500
69	2	0	1	0	2	0.403019644669257	2	1	203.476176284486	500
70	2	0	0	0	1	0.336390682845376	1	1	206.4914477407	200
71	2	0	0	0	1	0.422054428549018	1	1	209.207029861514	100
72	2	0	0	0	2	0.391505420906469	2	1	211.823254805291	400
73	2	0	1	0	2	0.454301120131277	2	1	214.738440222398	400
74	2	0	0	0	2	0.556738316721749	2	1	217.654080857465	100
75	2	0	1	0	1	0.406185318308417	1	1	220.269703014346	100
76	2	0	0	0	1	0.432240532187279	1	1	222.885430073482	500
77	2	0	0	0	2	0.360195791814476	2	1	225.901157710061	100
78	2	1	0	0	1	0.43610715813702	1	1	228.5171324283	400
79	2	0	0	0	1	0.429601294512395	1	1	231.432503268938	300
80	2	0	0	0	2	0.476317116583232	2	1	234.247997874976	100
81	2	0	0	0	1	0.401153860439081	1	1	236.864258106973	500
82	2	0	0	0	1	0.444651076511946	1	1	239.879982856335	400
83	2	1	0	0	1	0.552486086846329	1	1	242.795070749649	100
84	2	0	0	0	1	0.455816588539165	1	1	245.411080114485	400
85	2	0	0	0	2	0.553513936290983	2	1	248.326452879934	500
86	2	0	0	0	2	0.452480569016188	2	1	251.342055403744	500
87	2	0	0	0	2	0.537019583047368	2	1	254.357655681961	500
88	2	1	0	0	2	0.532512636389583	2	1	257.373819930013	200
89	2	0	0	0	2	0.512251747422852	2	1	260.089398201148	400
90	2	0	0	0	1	0.382796289515682	1	1	263.004954786156	200
91	2	0	0	0	2	0.459391926357057	2	1	265.72076628037	100
92	2	0	1	0	1	0.546200293349102	1	1	268.336409930955	500
93	2	0	0	0	2	0.42146030330332	2	1	271.351555953617	100
94	2	0	0	0	2	0.566079748794436	2	1	273.967028295971	500
95	2	0	0	0	1	0.511802945460659	1	1	276.983263120463	200
96	2	0	0	0	1	0.602256905869581	1	1	279.699056008132	100
97	2	0	0	0	2	0.524470773059875	2	1	282.314184130053	300
98	2	0	0	0	1	0.486648864287417	1	1	285.13048491138	300
99	2	0	0	0	1	0.450505712244194	2	2	287.945473291911	400
100	2	0	1	0	2	0.45585219754139	2	1	290.861238718964	400
101	2	0	0	0	1	0.419230088184122	1	1	293.776853689924	300
102	2	0	0	0	1	0.380057924019638	1	1	296.592496827245	200
103	2	0	0	0	2	0.550915761268698	2	1	299.30816363974	300
104	2	0	0	0	2	0.697959827899467	2	1	302.123696421215	300
105	2	0	0	0	2	0.53701477102004	2	1	304.939860540966	300
106	2	1	0	0	2	0.573999065789394	2	1	307.755169402633	500
107	2	0	0	0	1	0.500738486123737	1	1	310.770755244768	300
108	2	0	0	0	2	0.524614492314868	2	1	313.586412497389	200
109	2	0	0	0	1	0.458442994160578	1	1	316.301967350009	200
110	2	0	0	0	1	0.683280892902985	1	1	319.017784618656	300
111	2	0	0	0	1	0.539532745548058	1	1	321.834027014091	200
112	2	0	0	0	2	0.528006010572426	2	1	324.549551390519	300
113	2	0	0	0	1	0.478309938276652	1	1	327.364819831157	100
114	2	1	0	0	2	0.505718615662772	2	1	329.981109256158	200
115	2	0	0	0	2	0.473375362693332	2	1	332.696605081204	100
116	2	0	0	0	1	0.375756611407269	1	1	335.312339839584	200
117	2	0	0	0	2	0.534205508301966	2	1	338.027659865213	500
118	2	0	0	0	2	0.416488193848636	2	1	341.043906880135	500
119	2	0	0	0	2	0.697914915625006	2	1	344.059207850136	200
120	2	0	0	0	2	0.587679665128235	2	1	346.77505623654	400
121	3	0	0	0	2	0.434056271216832	2	1	363.536758450209	200
122	3	0	0	0	2	0.406100947409868	2	1	366.251203969703	500
123	3	0	0	0	1	0.421852644125465	1	1	369.266434042423	300
124	3	0	1	0	1	0.445005562680308	1	1	372.082476578245	100
125	3	0	0	0	1	0.476777467352804	1	1	374.698199146136	200
126	3	0	0	0	2	0.57127128681168	2	1	377.413562159229	400
127	3	1	0	0	2	0.456295545853209	2	1	380.329269200272	500
128	3	0	0	0	1	0.466814321116544	1	1	383.344773879508	500
129	3	0	0	0	2	0.505667287274264	2	1	386.360469756706	100
130	3	1	0	0	2	0.488071620929986	2	1	388.976044114097	400
131	3	0	0	0	1	0.337339294259436	1	1	391.891787084984	100
132	3	0	1	0	1	0.446790825633798	1	1	394.507912259374	400
133	3	0	0	0	1	0.437799709208775	1	1	397.423170498514	300
134	3	0	0	0	2	0.453162914782297	2	1	400.238635269983	300
135	3	0	0	0	2	0.461294281878509	2	1	403.054883439792	300
136	3	0	0	0	2	0.483659631689079	2	1	405.870086757641	400
137	3	0	0	0	1	0.433551970578264	1	1	408.785627944104	200
138	3	1	0	0	1	0.548093345656525	1	1	411.501373673964	500
139	3	0	0	0	2	0.479380775243044	2	1	414.517112538568	300
140	3	0	0	0	1	0.418683441646863	1	1	417.332668738614	200
141	3	0	0	0	1	0.543895652110223	1	1	420.048178037337	100
142	3	0	0	0	1	0.46243024157593	1	1	422.664013848349	400
143	3	1	0	0	2	0.609361385926604	2	1	425.579621120007	300
144	3	0	0	0	1	0.440595819090959	1	1	428.395375575637	500
145	3	0	0	0	2	0.497022316267248	2	1	431.411398350028	400
146	3	0	0	0	1	0.385005652497057	1	1	434.326561311027	200
147	3	0	0	0	1	0.536893507873174	1	1	437.042641637265	200
148	3	0	0	0	2	0.488236192322802	2	1	439.75790969294	100
149	3	0	1	0	2	0.692273292457685	2	1	442.374145543959	200
150	3	0	0	0	1	0.451006484043319	1	1	445.089354892902	200
151	3	0	0	0	1	0.369993404310662	1	1	447.805061484862	500
152	3	0	0	0	1	0.47909750713734	1	1	450.820752870815	500
153	3	0	0	0	2	0.690353613579646	2	1	453.836339354573	300
154	3	0	1	0	2	0.552112031728029	2	1	456.6519552237	500
155	3	0	0	0	2	0.465084877796471	2	1	459.667592073325	200
156	3	0	0	0	2	0.363673285057303	2	1	462.383592519909	500
157	3	0	0	0	2	0.556771038507577	2	1	465.399440136389	400
158	3	0	0	0	1	0.466735724592581	1	1	468.314867759007	500
159	3	0	0	0	1	0.467295524023939	1	1	471.330075696402	300
160	3	0	0	0	1	0.49631398555357	1	1	474.145536939031	100
161	3	0	1	0	1	0.430696512397844	1	1	476.761695476773	100
162	3	0	0	0	1	0.482506348693278	1	1	479.377071899362	400
163	3	0	0	0	2	0.527477970521431	2	1	482.292689436756	200
164	3	0	0	0	1	0.346973297710065	1	1	485.008919898304	100
165	3	0	0	0	1	0.683470166055486	1	1	487.624633804546	100
166	3	0	0	0	2	0.56754228490172	2	1	490.239744923951	400
167	3	1	0	0	1	0.419065837515518	1	1	493.155915523821	200
168	3	0	0	0	2	0.436672731942963	2	1	495.871162727417	300
169	3	0	0	0	2	0.509247757901903	2	1	498.687335508759	400
170	3	0	0	0	2	0.560831428854726	2	1	501.602973256609	200
171	3	0	0	0	1	0.371872662159149	1	1	504.318513031583	400
172	3	0	0	0	2	0.62716364877997	2	1	507.234318879666	300
173	3	0	0	0	2	0.634556850593071	2	1	510.049914217554	300
174	3	0	0	0	2	0.604573096032254	2	1	512.86553714436	100
175	3	0	0	0	1	0.507786505040713	1	1	515.481172774918	500
176	3	0	0	0	2	0.523254933592398	2	1	518.496957835043	100
177	3	0	0	0	1	0.52426128933439	1	1	521.112460012024	400
178	3	0	1	0	2	0.534588225011248	2	1	524.02838648163	500
179	3	0	0	0	2	0.438797403301578	2	1	527.04349657445	100
180	3	1	0	0	1	0.424418418086134	1	1	529.659697778872	300
181	4	0	0	0	2	0.531728596426547	2	1	556.617881885846	500
182	4	0	1	0	1	0.400257860659622	1	1	559.631873342209	200
183	4	0	0	0	1	0.409992916684132	1	1	562.347442630969	200
184	4	0	0	0	2	0.547867821936961	2	1	565.063521994802	500
185	4	0	0	0	1	0.317758826247882	1	1	568.079238082515	100
186	4	0	0	0	1	0.327679947426077	1	1	570.694823026366	400
187	4	0	0	0	2	0.423607109987643	2	1	573.610701696482	400
188	4	0	0	0	1	0.378333292726893	1	1	576.525766812905	500
189	4	0	0	0	2	0.427352793572936	2	1	579.541411040933	200
190	4	0	0	0	2	0.569961773231626	2	1	582.25685425452	100
191	4	0	0	0	2	0.461476176569704	2	1	584.873252431338	300
192	4	0	0	0	1	0.432609454437625	1	1	587.68884103233	400
193	4	0	0	0	2	0.553870988893323	2	1	590.604653296468	300
194	4	0	0	0	2	0.541330840496812	2	1	593.419706158224	500
195	4	0	0	0	1	0.417370078386739	1	1	596.435943549091	300
196	4	0	1	0	2	0.370463699975517	2	1	599.251516110031	300
197	4	0	0	0	1	0.426857796206605	1	1	602.067235919007	100
198	4	1	0	0	2	0.448735527053941	2	1	604.68228833162	500
199	4	0	0	0	2	0.377252510923427	2	1	607.698399005749	400
200	4	0	0	0	1	0.375850285578053	1	1	610.613592442882	100
201	4	1	0	0	1	0.502210325445049	1	1	613.229507812764	100
202	4	0	0	0	2	0.400766010920051	2	1	615.845273368177	500
203	4	0	0	0	1	0.407165689044632	1	1	618.861203751585	300
204	4	0	0	0	2	0.381853131751996	2	1	621.676802939037	400
205	4	1	0	0	1	0.396788708283566	1	1	624.592461218243	100
206	4	0	0	0	2	0.396764006523881	2	1	627.207559505536	500
207	4	0	0	0	2	0.453501360840164	2	1	630.223486680945	400
208	4	0	0	0	1	0.321056670276448	1	1	633.138871636824	200
209	4	0	1	0	2	0.426176092063542	2	1	635.855055582128	500
210	4	0	0	0	1	0.393235505849589	1	1	638.870169203728	500
211	4	0	0	0	2	0.42190814280184	2	1	641.886115306464	100
212	4	0	0	0	1	0.383195367117878	1	1	644.501373353123	200
213	4	0	0	0	2	0.404367333627306	2	1	647.217491534015	400
214	4	0	0	0	1	0.369328061060514	1	1	650.133068650321	400
215	4	0	0	0	1	0.418893246096559	1	1	653.0487750498	200
216	4	0	1	0	2	0.410907523066271	2	1	655.764652308426	500
217	4	0	0	0	1	0.39947991585359	1	1	658.779733208241	300
218	4	0	0	0	2	0.342876656795852	2	1	661.595947693859	100
219	4	0	0	0	2	0.571767888206523	2	1	664.210838422296	100
220	4	0	0	0	1	0.343968987464905	1	1	666.827076198126	200
221	4	0	0	0	2	0.474484054197092	2	1	669.543024674756	200
222	4	0	1	0	1	0.346120285335928	1	1	672.258433562529	300
223	4	0	0	0	2	0.322546474577393	2	1	675.073763276334	200
224	4	1	0	0	2	0.481435511726886	2	1	677.789878890791	100
225	4	0	0	0	2	0.578930112649687	2	1	680.405212005135	100
226	4	0	0	0	1	0.294234418950509	1	1	683.020914683351	300
227	4	0	0	0	1	0.474369207164273	1	1	685.836524136481	400
228	4	0	0	0	1	0.439484561095014	1	1	688.752707568463	300
229	4	0	1	0	1	0.596818991994951	1	1	691.56794777856	300
230	4	0	0	0	1	0.428044442611281	1	1	694.384190494718	400
231	4	0	0	0	2	0.444908680510707	2	1	697.299839470652	300
232	4	1	0	0	2	0.464377509430051	2	1	700.114747009124	500
233	4	0	0	0	1	0.426810317498166	1	1	703.130903878715	200
234	4	0	0	0	1	0.571874715271406	1	1	705.84614017501	300
235	4	0	0	0	2	0.399711534904782	2	1	708.66218399402	500
236	4	0	0	0	1	0.351931933546439	1	1	711.677510948968	400
237	4	0	0	0	1	0.467844736995175	1	1	714.593540396017	100
238	4	0	0	0	2	0.552995520294644	2	1	717.209010171937	200
239	4	0	0	0	2	0.521625901281368	2	1	719.924428362981	400
240	4	1	0	0	1	0.400462853023782	1	1	722.840433429054	200
